"trial_type","trial_index","time_elapsed","internal_node_id","subject_id","study_id","session_id","PT_TRIALS_N","PT_TRIALS_PER_BLOCK","PT_BLOCKS","TEST_TRIALS_N","TEST_TRIALS_PER_BLOCK","TEST_BLOCKS","REWARD_PROBABILITIES","REWARD_PROBABILITIES_ITERATIONS","REWARD_TO_PREF_TRIALS_RATIO","STAGE_2_TRIAL_IMAGES_TIME","STAGE_2_TRIAL_TIME_LIMIT","STAGE_2_FEEDBACK_DURATION","STAGE_2_TOO_SLOW_FEEDBACK_DURATION","INITIAL_SCREEN_WIDTH","INITIAL_SCREEN_HEIGHT","FULLSCREEN_SCREEN_WIDTH","FULLSCREEN_SCREEN_HEIGHT","ACQUIRED_BONUS","view_history","rt","response","question_order","success","stimulus","slider_start","trial_name","block","trial","stage_1_trial_item_src","stage_1_trial_item_id","stage_1_trial_slider_rating","value","pt_trial","item_1_id","item_1_subjective_value","item_1_subjective_value_category","item_1_border_color","item_1_reward_prob","item_2_id","item_2_subjective_value","item_2_subjective_value_category","item_2_border_color","item_2_reward_prob","items_subjective_value_difference","selected_item","preference_response_consistent","acquired_points","cumulative_missed_prop_per_block","stage_3_trial_item_src","stage_3_trial_item_id","stage_3_trial_slider_rating","stage_3_img_rating_from_stage_1"
"pavlovia","0","2775","0.0-0.0","5ac78faa68b65b00018d72a1","61efc64a8ec3b24bc537c194","620d125fa734c9a6ce0ca2c8","10","10","1","360","90","4","[[0.2,0.8],[0.4,0.6]]","2","0.5","1200","2000","1000","750","1920","968","1920","1080","0.64","","","","","","","","","","","","","","","","","","","","","","","","","","","","","","","","","",""
"instructions","1","27828","0.0-1.0","5ac78faa68b65b00018d72a1","61efc64a8ec3b24bc537c194","620d125fa734c9a6ce0ca2c8","10","10","1","360","90","4","[[0.2,0.8],[0.4,0.6]]","2","0.5","1200","2000","1000","750","1920","968","1920","1080","0.64","[{""page_index"":0,""viewing_time"":25053}]","25054","","","","","","","","","","","","","","","","","","","","","","","","","","","","","","","",""
"instructions","2","132251","0.0-3.0","5ac78faa68b65b00018d72a1","61efc64a8ec3b24bc537c194","620d125fa734c9a6ce0ca2c8","10","10","1","360","90","4","[[0.2,0.8],[0.4,0.6]]","2","0.5","1200","2000","1000","750","1920","968","1920","1080","0.64","[{""page_index"":0,""viewing_time"":76583},{""page_index"":1,""viewing_time"":6884},{""page_index"":2,""viewing_time"":6434},{""page_index"":3,""viewing_time"":4464},{""page_index"":4,""viewing_time"":10053}]","104418","","","","","","","","","","","","","","","","","","","","","","","","","","","","","","","",""
"survey-multi-choice","3","145879","0.0-4.0","5ac78faa68b65b00018d72a1","61efc64a8ec3b24bc537c194","620d125fa734c9a6ce0ca2c8","10","10","1","360","90","4","[[0.2,0.8],[0.4,0.6]]","2","0.5","1200","2000","1000","750","1920","968","1920","1080","0.64","","13620","{""Q0"":""I agree"",""Q1"":""I agree"",""Q2"":""I agree"",""Q3"":""I agree"",""Q4"":""I agree""}","[0,1,2,3,4]","","","","","","","","","","","","","","","","","","","","","","","","","","","","","",""
"fullscreen","4","158542","0.0-5.0","5ac78faa68b65b00018d72a1","61efc64a8ec3b24bc537c194","620d125fa734c9a6ce0ca2c8","10","10","1","360","90","4","[[0.2,0.8],[0.4,0.6]]","2","0.5","1200","2000","1000","750","1920","968","1920","1080","0.64","","","","","true","","","","","","","","","","","","","","","","","","","","","","","","","","","","",""
"instructions","5","178857","0.0-6.0","5ac78faa68b65b00018d72a1","61efc64a8ec3b24bc537c194","620d125fa734c9a6ce0ca2c8","10","10","1","360","90","4","[[0.2,0.8],[0.4,0.6]]","2","0.5","1200","2000","1000","750","1920","968","1920","1080","0.64","[{""page_index"":0,""viewing_time"":12355},{""page_index"":1,""viewing_time"":4287},{""page_index"":2,""viewing_time"":3671}]","20313","","","","","","","","","","","","","","","","","","","","","","","","","","","","","","","",""
"image-slider-response","6","185813","0.0-7.0-0.0-0.0","5ac78faa68b65b00018d72a1","61efc64a8ec3b24bc537c194","620d125fa734c9a6ce0ca2c8","10","10","1","360","90","4","[[0.2,0.8],[0.4,0.6]]","2","0.5","1200","2000","1000","750","1920","968","1920","1080","0.64","","6945","18","","","img/food_items/0308.jpg","50","stage_1_trial","0","0","img/food_items/0308.jpg","0308","18","","","","","","","","","","","","","","","","","","","","",""
"image-slider-response","7","189208","0.0-7.0-0.0-0.1","5ac78faa68b65b00018d72a1","61efc64a8ec3b24bc537c194","620d125fa734c9a6ce0ca2c8","10","10","1","360","90","4","[[0.2,0.8],[0.4,0.6]]","2","0.5","1200","2000","1000","750","1920","968","1920","1080","0.64","","3388","0","","","img/food_items/0496.jpg","50","stage_1_trial","0","1","img/food_items/0496.jpg","0496","0","","","","","","","","","","","","","","","","","","","","",""
"image-slider-response","8","191846","0.0-7.0-0.0-0.2","5ac78faa68b65b00018d72a1","61efc64a8ec3b24bc537c194","620d125fa734c9a6ce0ca2c8","10","10","1","360","90","4","[[0.2,0.8],[0.4,0.6]]","2","0.5","1200","2000","1000","750","1920","968","1920","1080","0.64","","2630","64","","","img/food_items/0614.jpg","50","stage_1_trial","0","2","img/food_items/0614.jpg","0614","64","","","","","","","","","","","","","","","","","","","","",""
"image-slider-response","9","196865","0.0-7.0-0.0-0.3","5ac78faa68b65b00018d72a1","61efc64a8ec3b24bc537c194","620d125fa734c9a6ce0ca2c8","10","10","1","360","90","4","[[0.2,0.8],[0.4,0.6]]","2","0.5","1200","2000","1000","750","1920","968","1920","1080","0.64","","5014","50","","","img/food_items/0041.jpg","50","stage_1_trial","0","3","img/food_items/0041.jpg","0041","50","","","","","","","","","","","","","","","","","","","","",""
"image-slider-response","10","200475","0.0-7.0-0.0-0.4","5ac78faa68b65b00018d72a1","61efc64a8ec3b24bc537c194","620d125fa734c9a6ce0ca2c8","10","10","1","360","90","4","[[0.2,0.8],[0.4,0.6]]","2","0.5","1200","2000","1000","750","1920","968","1920","1080","0.64","","3606","74","","","img/food_items/0028.jpg","50","stage_1_trial","0","4","img/food_items/0028.jpg","0028","74","","","","","","","","","","","","","","","","","","","","",""
"image-slider-response","11","203504","0.0-7.0-0.0-0.5","5ac78faa68b65b00018d72a1","61efc64a8ec3b24bc537c194","620d125fa734c9a6ce0ca2c8","10","10","1","360","90","4","[[0.2,0.8],[0.4,0.6]]","2","0.5","1200","2000","1000","750","1920","968","1920","1080","0.64","","3025","58","","","img/food_items/0080.jpg","50","stage_1_trial","0","5","img/food_items/0080.jpg","0080","58","","","","","","","","","","","","","","","","","","","","",""
"image-slider-response","12","206019","0.0-7.0-0.0-0.6","5ac78faa68b65b00018d72a1","61efc64a8ec3b24bc537c194","620d125fa734c9a6ce0ca2c8","10","10","1","360","90","4","[[0.2,0.8],[0.4,0.6]]","2","0.5","1200","2000","1000","750","1920","968","1920","1080","0.64","","2511","89","","","img/food_items/0365.jpg","50","stage_1_trial","0","6","img/food_items/0365.jpg","0365","89","","","","","","","","","","","","","","","","","","","","",""
"image-slider-response","13","208681","0.0-7.0-0.0-0.7","5ac78faa68b65b00018d72a1","61efc64a8ec3b24bc537c194","620d125fa734c9a6ce0ca2c8","10","10","1","360","90","4","[[0.2,0.8],[0.4,0.6]]","2","0.5","1200","2000","1000","750","1920","968","1920","1080","0.64","","2659","99","","","img/food_items/0380.jpg","50","stage_1_trial","0","7","img/food_items/0380.jpg","0380","99","","","","","","","","","","","","","","","","","","","","",""
"image-slider-response","14","212854","0.0-7.0-0.0-0.8","5ac78faa68b65b00018d72a1","61efc64a8ec3b24bc537c194","620d125fa734c9a6ce0ca2c8","10","10","1","360","90","4","[[0.2,0.8],[0.4,0.6]]","2","0.5","1200","2000","1000","750","1920","968","1920","1080","0.64","","4168","62","","","img/food_items/0014.jpg","50","stage_1_trial","0","8","img/food_items/0014.jpg","0014","62","","","","","","","","","","","","","","","","","","","","",""
"image-slider-response","15","215299","0.0-7.0-0.0-0.9","5ac78faa68b65b00018d72a1","61efc64a8ec3b24bc537c194","620d125fa734c9a6ce0ca2c8","10","10","1","360","90","4","[[0.2,0.8],[0.4,0.6]]","2","0.5","1200","2000","1000","750","1920","968","1920","1080","0.64","","2441","94","","","img/food_items/0569.jpg","50","stage_1_trial","0","9","img/food_items/0569.jpg","0569","94","","","","","","","","","","","","","","","","","","","","",""
"image-slider-response","16","217615","0.0-7.0-0.0-0.10","5ac78faa68b65b00018d72a1","61efc64a8ec3b24bc537c194","620d125fa734c9a6ce0ca2c8","10","10","1","360","90","4","[[0.2,0.8],[0.4,0.6]]","2","0.5","1200","2000","1000","750","1920","968","1920","1080","0.64","","2312","34","","","img/food_items/0116.jpg","50","stage_1_trial","0","10","img/food_items/0116.jpg","0116","34","","","","","","","","","","","","","","","","","","","","",""
"image-slider-response","17","222264","0.0-7.0-0.0-0.11","5ac78faa68b65b00018d72a1","61efc64a8ec3b24bc537c194","620d125fa734c9a6ce0ca2c8","10","10","1","360","90","4","[[0.2,0.8],[0.4,0.6]]","2","0.5","1200","2000","1000","750","1920","968","1920","1080","0.64","","4645","41","","","img/food_items/0277.jpg","50","stage_1_trial","0","11","img/food_items/0277.jpg","0277","41","","","","","","","","","","","","","","","","","","","","",""
"image-slider-response","18","224519","0.0-7.0-0.0-0.12","5ac78faa68b65b00018d72a1","61efc64a8ec3b24bc537c194","620d125fa734c9a6ce0ca2c8","10","10","1","360","90","4","[[0.2,0.8],[0.4,0.6]]","2","0.5","1200","2000","1000","750","1920","968","1920","1080","0.64","","2251","36","","","img/food_items/0504.jpg","50","stage_1_trial","0","12","img/food_items/0504.jpg","0504","36","","","","","","","","","","","","","","","","","","","","",""
"image-slider-response","19","227554","0.0-7.0-0.0-0.13","5ac78faa68b65b00018d72a1","61efc64a8ec3b24bc537c194","620d125fa734c9a6ce0ca2c8","10","10","1","360","90","4","[[0.2,0.8],[0.4,0.6]]","2","0.5","1200","2000","1000","750","1920","968","1920","1080","0.64","","3030","17","","","img/food_items/0189.jpg","50","stage_1_trial","0","13","img/food_items/0189.jpg","0189","17","","","","","","","","","","","","","","","","","","","","",""
"image-slider-response","20","229889","0.0-7.0-0.0-0.14","5ac78faa68b65b00018d72a1","61efc64a8ec3b24bc537c194","620d125fa734c9a6ce0ca2c8","10","10","1","360","90","4","[[0.2,0.8],[0.4,0.6]]","2","0.5","1200","2000","1000","750","1920","968","1920","1080","0.64","","2333","72","","","img/food_items/0199.jpg","50","stage_1_trial","0","14","img/food_items/0199.jpg","0199","72","","","","","","","","","","","","","","","","","","","","",""
"image-slider-response","21","232155","0.0-7.0-0.0-0.15","5ac78faa68b65b00018d72a1","61efc64a8ec3b24bc537c194","620d125fa734c9a6ce0ca2c8","10","10","1","360","90","4","[[0.2,0.8],[0.4,0.6]]","2","0.5","1200","2000","1000","750","1920","968","1920","1080","0.64","","2261","87","","","img/food_items/0468.jpg","50","stage_1_trial","0","15","img/food_items/0468.jpg","0468","87","","","","","","","","","","","","","","","","","","","","",""
"image-slider-response","22","234467","0.0-7.0-0.0-0.16","5ac78faa68b65b00018d72a1","61efc64a8ec3b24bc537c194","620d125fa734c9a6ce0ca2c8","10","10","1","360","90","4","[[0.2,0.8],[0.4,0.6]]","2","0.5","1200","2000","1000","750","1920","968","1920","1080","0.64","","2305","21","","","img/food_items/0287.jpg","50","stage_1_trial","0","16","img/food_items/0287.jpg","0287","21","","","","","","","","","","","","","","","","","","","","",""
"image-slider-response","23","236893","0.0-7.0-0.0-0.17","5ac78faa68b65b00018d72a1","61efc64a8ec3b24bc537c194","620d125fa734c9a6ce0ca2c8","10","10","1","360","90","4","[[0.2,0.8],[0.4,0.6]]","2","0.5","1200","2000","1000","750","1920","968","1920","1080","0.64","","2422","36","","","img/food_items/0286.jpg","50","stage_1_trial","0","17","img/food_items/0286.jpg","0286","36","","","","","","","","","","","","","","","","","","","","",""
"image-slider-response","24","239506","0.0-7.0-0.0-0.18","5ac78faa68b65b00018d72a1","61efc64a8ec3b24bc537c194","620d125fa734c9a6ce0ca2c8","10","10","1","360","90","4","[[0.2,0.8],[0.4,0.6]]","2","0.5","1200","2000","1000","750","1920","968","1920","1080","0.64","","2608","81","","","img/food_items/0249.jpg","50","stage_1_trial","0","18","img/food_items/0249.jpg","0249","81","","","","","","","","","","","","","","","","","","","","",""
"image-slider-response","25","242544","0.0-7.0-0.0-0.19","5ac78faa68b65b00018d72a1","61efc64a8ec3b24bc537c194","620d125fa734c9a6ce0ca2c8","10","10","1","360","90","4","[[0.2,0.8],[0.4,0.6]]","2","0.5","1200","2000","1000","750","1920","968","1920","1080","0.64","","3035","100","","","img/food_items/0755.jpg","50","stage_1_trial","0","19","img/food_items/0755.jpg","0755","100","","","","","","","","","","","","","","","","","","","","",""
"image-slider-response","26","246813","0.0-7.0-0.0-0.20","5ac78faa68b65b00018d72a1","61efc64a8ec3b24bc537c194","620d125fa734c9a6ce0ca2c8","10","10","1","360","90","4","[[0.2,0.8],[0.4,0.6]]","2","0.5","1200","2000","1000","750","1920","968","1920","1080","0.64","","4263","7","","","img/food_items/0626.jpg","50","stage_1_trial","0","20","img/food_items/0626.jpg","0626","7","","","","","","","","","","","","","","","","","","","","",""
"image-slider-response","27","250030","0.0-7.0-0.0-0.21","5ac78faa68b65b00018d72a1","61efc64a8ec3b24bc537c194","620d125fa734c9a6ce0ca2c8","10","10","1","360","90","4","[[0.2,0.8],[0.4,0.6]]","2","0.5","1200","2000","1000","750","1920","968","1920","1080","0.64","","3212","73","","","img/food_items/0571.jpg","50","stage_1_trial","0","21","img/food_items/0571.jpg","0571","73","","","","","","","","","","","","","","","","","","","","",""
"image-slider-response","28","253182","0.0-7.0-0.0-0.22","5ac78faa68b65b00018d72a1","61efc64a8ec3b24bc537c194","620d125fa734c9a6ce0ca2c8","10","10","1","360","90","4","[[0.2,0.8],[0.4,0.6]]","2","0.5","1200","2000","1000","750","1920","968","1920","1080","0.64","","3147","56","","","img/food_items/0515.jpg","50","stage_1_trial","0","22","img/food_items/0515.jpg","0515","56","","","","","","","","","","","","","","","","","","","","",""
"image-slider-response","29","256222","0.0-7.0-0.0-0.23","5ac78faa68b65b00018d72a1","61efc64a8ec3b24bc537c194","620d125fa734c9a6ce0ca2c8","10","10","1","360","90","4","[[0.2,0.8],[0.4,0.6]]","2","0.5","1200","2000","1000","750","1920","968","1920","1080","0.64","","3037","100","","","img/food_items/0187.jpg","50","stage_1_trial","0","23","img/food_items/0187.jpg","0187","100","","","","","","","","","","","","","","","","","","","","",""
"image-slider-response","30","261715","0.0-7.0-0.0-0.24","5ac78faa68b65b00018d72a1","61efc64a8ec3b24bc537c194","620d125fa734c9a6ce0ca2c8","10","10","1","360","90","4","[[0.2,0.8],[0.4,0.6]]","2","0.5","1200","2000","1000","750","1920","968","1920","1080","0.64","","5486","11","","","img/food_items/0319.jpg","50","stage_1_trial","0","24","img/food_items/0319.jpg","0319","11","","","","","","","","","","","","","","","","","","","","",""
"image-slider-response","31","264322","0.0-7.0-0.0-0.25","5ac78faa68b65b00018d72a1","61efc64a8ec3b24bc537c194","620d125fa734c9a6ce0ca2c8","10","10","1","360","90","4","[[0.2,0.8],[0.4,0.6]]","2","0.5","1200","2000","1000","750","1920","968","1920","1080","0.64","","2602","100","","","img/food_items/0400.jpg","50","stage_1_trial","0","25","img/food_items/0400.jpg","0400","100","","","","","","","","","","","","","","","","","","","","",""
"image-slider-response","32","268060","0.0-7.0-0.0-0.26","5ac78faa68b65b00018d72a1","61efc64a8ec3b24bc537c194","620d125fa734c9a6ce0ca2c8","10","10","1","360","90","4","[[0.2,0.8],[0.4,0.6]]","2","0.5","1200","2000","1000","750","1920","968","1920","1080","0.64","","3730","0","","","img/food_items/0820.jpg","50","stage_1_trial","0","26","img/food_items/0820.jpg","0820","0","","","","","","","","","","","","","","","","","","","","",""
"image-slider-response","33","272100","0.0-7.0-0.0-0.27","5ac78faa68b65b00018d72a1","61efc64a8ec3b24bc537c194","620d125fa734c9a6ce0ca2c8","10","10","1","360","90","4","[[0.2,0.8],[0.4,0.6]]","2","0.5","1200","2000","1000","750","1920","968","1920","1080","0.64","","4036","49","","","img/food_items/0459.jpg","50","stage_1_trial","0","27","img/food_items/0459.jpg","0459","49","","","","","","","","","","","","","","","","","","","","",""
"image-slider-response","34","274192","0.0-7.0-0.0-0.28","5ac78faa68b65b00018d72a1","61efc64a8ec3b24bc537c194","620d125fa734c9a6ce0ca2c8","10","10","1","360","90","4","[[0.2,0.8],[0.4,0.6]]","2","0.5","1200","2000","1000","750","1920","968","1920","1080","0.64","","2087","100","","","img/food_items/0360.jpg","50","stage_1_trial","0","28","img/food_items/0360.jpg","0360","100","","","","","","","","","","","","","","","","","","","","",""
"image-slider-response","35","277523","0.0-7.0-0.0-0.29","5ac78faa68b65b00018d72a1","61efc64a8ec3b24bc537c194","620d125fa734c9a6ce0ca2c8","10","10","1","360","90","4","[[0.2,0.8],[0.4,0.6]]","2","0.5","1200","2000","1000","750","1920","968","1920","1080","0.64","","3326","75","","","img/food_items/0422.jpg","50","stage_1_trial","0","29","img/food_items/0422.jpg","0422","75","","","","","","","","","","","","","","","","","","","","",""
"image-slider-response","36","280103","0.0-7.0-0.0-0.30","5ac78faa68b65b00018d72a1","61efc64a8ec3b24bc537c194","620d125fa734c9a6ce0ca2c8","10","10","1","360","90","4","[[0.2,0.8],[0.4,0.6]]","2","0.5","1200","2000","1000","750","1920","968","1920","1080","0.64","","2575","79","","","img/food_items/0801.jpg","50","stage_1_trial","0","30","img/food_items/0801.jpg","0801","79","","","","","","","","","","","","","","","","","","","","",""
"image-slider-response","37","282895","0.0-7.0-0.0-0.31","5ac78faa68b65b00018d72a1","61efc64a8ec3b24bc537c194","620d125fa734c9a6ce0ca2c8","10","10","1","360","90","4","[[0.2,0.8],[0.4,0.6]]","2","0.5","1200","2000","1000","750","1920","968","1920","1080","0.64","","2787","100","","","img/food_items/0070.jpg","50","stage_1_trial","0","31","img/food_items/0070.jpg","0070","100","","","","","","","","","","","","","","","","","","","","",""
"image-slider-response","38","286678","0.0-7.0-0.0-0.32","5ac78faa68b65b00018d72a1","61efc64a8ec3b24bc537c194","620d125fa734c9a6ce0ca2c8","10","10","1","360","90","4","[[0.2,0.8],[0.4,0.6]]","2","0.5","1200","2000","1000","750","1920","968","1920","1080","0.64","","3779","100","","","img/food_items/0399.jpg","50","stage_1_trial","0","32","img/food_items/0399.jpg","0399","100","","","","","","","","","","","","","","","","","","","","",""
"image-slider-response","39","290742","0.0-7.0-0.0-0.33","5ac78faa68b65b00018d72a1","61efc64a8ec3b24bc537c194","620d125fa734c9a6ce0ca2c8","10","10","1","360","90","4","[[0.2,0.8],[0.4,0.6]]","2","0.5","1200","2000","1000","750","1920","968","1920","1080","0.64","","4057","34","","","img/food_items/0162.jpg","50","stage_1_trial","0","33","img/food_items/0162.jpg","0162","34","","","","","","","","","","","","","","","","","","","","",""
"image-slider-response","40","293835","0.0-7.0-0.0-0.34","5ac78faa68b65b00018d72a1","61efc64a8ec3b24bc537c194","620d125fa734c9a6ce0ca2c8","10","10","1","360","90","4","[[0.2,0.8],[0.4,0.6]]","2","0.5","1200","2000","1000","750","1920","968","1920","1080","0.64","","3086","33","","","img/food_items/0313.jpg","50","stage_1_trial","0","34","img/food_items/0313.jpg","0313","33","","","","","","","","","","","","","","","","","","","","",""
"image-slider-response","41","296249","0.0-7.0-0.0-0.35","5ac78faa68b65b00018d72a1","61efc64a8ec3b24bc537c194","620d125fa734c9a6ce0ca2c8","10","10","1","360","90","4","[[0.2,0.8],[0.4,0.6]]","2","0.5","1200","2000","1000","750","1920","968","1920","1080","0.64","","2409","100","","","img/food_items/0467.jpg","50","stage_1_trial","0","35","img/food_items/0467.jpg","0467","100","","","","","","","","","","","","","","","","","","","","",""
"image-slider-response","42","298647","0.0-7.0-0.0-0.36","5ac78faa68b65b00018d72a1","61efc64a8ec3b24bc537c194","620d125fa734c9a6ce0ca2c8","10","10","1","360","90","4","[[0.2,0.8],[0.4,0.6]]","2","0.5","1200","2000","1000","750","1920","968","1920","1080","0.64","","2391","63","","","img/food_items/0507.jpg","50","stage_1_trial","0","36","img/food_items/0507.jpg","0507","63","","","","","","","","","","","","","","","","","","","","",""
"image-slider-response","43","302290","0.0-7.0-0.0-0.37","5ac78faa68b65b00018d72a1","61efc64a8ec3b24bc537c194","620d125fa734c9a6ce0ca2c8","10","10","1","360","90","4","[[0.2,0.8],[0.4,0.6]]","2","0.5","1200","2000","1000","750","1920","968","1920","1080","0.64","","3637","20","","","img/food_items/0310.jpg","50","stage_1_trial","0","37","img/food_items/0310.jpg","0310","20","","","","","","","","","","","","","","","","","","","","",""
"image-slider-response","44","307500","0.0-7.0-0.0-0.38","5ac78faa68b65b00018d72a1","61efc64a8ec3b24bc537c194","620d125fa734c9a6ce0ca2c8","10","10","1","360","90","4","[[0.2,0.8],[0.4,0.6]]","2","0.5","1200","2000","1000","750","1920","968","1920","1080","0.64","","5205","88","","","img/food_items/0460.jpg","50","stage_1_trial","0","38","img/food_items/0460.jpg","0460","88","","","","","","","","","","","","","","","","","","","","",""
"image-slider-response","45","311584","0.0-7.0-0.0-0.39","5ac78faa68b65b00018d72a1","61efc64a8ec3b24bc537c194","620d125fa734c9a6ce0ca2c8","10","10","1","360","90","4","[[0.2,0.8],[0.4,0.6]]","2","0.5","1200","2000","1000","750","1920","968","1920","1080","0.64","","4079","71","","","img/food_items/0421.jpg","50","stage_1_trial","0","39","img/food_items/0421.jpg","0421","71","","","","","","","","","","","","","","","","","","","","",""
"html-keyboard-response","46","311887","0.0-7.0-1.0-0.0","5ac78faa68b65b00018d72a1","61efc64a8ec3b24bc537c194","620d125fa734c9a6ce0ca2c8","10","10","1","360","90","4","[[0.2,0.8],[0.4,0.6]]","2","0.5","1200","2000","1000","750","1920","968","1920","1080","0.64","","null","null","","","<div class=""fixation-cross"">+</div>","","fixation_cross","","","","","","","","","","","","","","","","","","","","","","","","","",""
"instructions","47","314051","0.0-7.0-1.0-1.0","5ac78faa68b65b00018d72a1","61efc64a8ec3b24bc537c194","620d125fa734c9a6ce0ca2c8","10","10","1","360","90","4","[[0.2,0.8],[0.4,0.6]]","2","0.5","1200","2000","1000","750","1920","968","1920","1080","0.64","[{""page_index"":0,""viewing_time"":2165}]","2165","","","","","","","","","","","","","","","","","","","","","","","","","","","","","","","",""
"image-slider-response","48","317196","0.0-7.0-2.0-0.0","5ac78faa68b65b00018d72a1","61efc64a8ec3b24bc537c194","620d125fa734c9a6ce0ca2c8","10","10","1","360","90","4","[[0.2,0.8],[0.4,0.6]]","2","0.5","1200","2000","1000","750","1920","968","1920","1080","0.64","","3137","60","","","img/food_items/0014.jpg","50","stage_1_trial","1","40","img/food_items/0014.jpg","0014","60","","","","","","","","","","","","","","","","","","","","",""
"image-slider-response","49","319669","0.0-7.0-2.0-0.1","5ac78faa68b65b00018d72a1","61efc64a8ec3b24bc537c194","620d125fa734c9a6ce0ca2c8","10","10","1","360","90","4","[[0.2,0.8],[0.4,0.6]]","2","0.5","1200","2000","1000","750","1920","968","1920","1080","0.64","","2468","100","","","img/food_items/0400.jpg","50","stage_1_trial","1","41","img/food_items/0400.jpg","0400","100","","","","","","","","","","","","","","","","","","","","",""
"image-slider-response","50","321799","0.0-7.0-2.0-0.2","5ac78faa68b65b00018d72a1","61efc64a8ec3b24bc537c194","620d125fa734c9a6ce0ca2c8","10","10","1","360","90","4","[[0.2,0.8],[0.4,0.6]]","2","0.5","1200","2000","1000","750","1920","968","1920","1080","0.64","","2123","100","","","img/food_items/0365.jpg","50","stage_1_trial","1","42","img/food_items/0365.jpg","0365","100","","","","","","","","","","","","","","","","","","","","",""
"image-slider-response","51","324635","0.0-7.0-2.0-0.3","5ac78faa68b65b00018d72a1","61efc64a8ec3b24bc537c194","620d125fa734c9a6ce0ca2c8","10","10","1","360","90","4","[[0.2,0.8],[0.4,0.6]]","2","0.5","1200","2000","1000","750","1920","968","1920","1080","0.64","","2831","80","","","img/food_items/0421.jpg","50","stage_1_trial","1","43","img/food_items/0421.jpg","0421","80","","","","","","","","","","","","","","","","","","","","",""
"image-slider-response","52","326526","0.0-7.0-2.0-0.4","5ac78faa68b65b00018d72a1","61efc64a8ec3b24bc537c194","620d125fa734c9a6ce0ca2c8","10","10","1","360","90","4","[[0.2,0.8],[0.4,0.6]]","2","0.5","1200","2000","1000","750","1920","968","1920","1080","0.64","","1887","65","","","img/food_items/0614.jpg","50","stage_1_trial","1","44","img/food_items/0614.jpg","0614","65","","","","","","","","","","","","","","","","","","","","",""
"image-slider-response","53","328691","0.0-7.0-2.0-0.5","5ac78faa68b65b00018d72a1","61efc64a8ec3b24bc537c194","620d125fa734c9a6ce0ca2c8","10","10","1","360","90","4","[[0.2,0.8],[0.4,0.6]]","2","0.5","1200","2000","1000","750","1920","968","1920","1080","0.64","","2159","100","","","img/food_items/0755.jpg","50","stage_1_trial","1","45","img/food_items/0755.jpg","0755","100","","","","","","","","","","","","","","","","","","","","",""
"image-slider-response","54","332405","0.0-7.0-2.0-0.6","5ac78faa68b65b00018d72a1","61efc64a8ec3b24bc537c194","620d125fa734c9a6ce0ca2c8","10","10","1","360","90","4","[[0.2,0.8],[0.4,0.6]]","2","0.5","1200","2000","1000","750","1920","968","1920","1080","0.64","","3710","79","","","img/food_items/0028.jpg","50","stage_1_trial","1","46","img/food_items/0028.jpg","0028","79","","","","","","","","","","","","","","","","","","","","",""
"image-slider-response","55","334578","0.0-7.0-2.0-0.7","5ac78faa68b65b00018d72a1","61efc64a8ec3b24bc537c194","620d125fa734c9a6ce0ca2c8","10","10","1","360","90","4","[[0.2,0.8],[0.4,0.6]]","2","0.5","1200","2000","1000","750","1920","968","1920","1080","0.64","","2168","0","","","img/food_items/0820.jpg","50","stage_1_trial","1","47","img/food_items/0820.jpg","0820","0","","","","","","","","","","","","","","","","","","","","",""
"image-slider-response","56","337358","0.0-7.0-2.0-0.8","5ac78faa68b65b00018d72a1","61efc64a8ec3b24bc537c194","620d125fa734c9a6ce0ca2c8","10","10","1","360","90","4","[[0.2,0.8],[0.4,0.6]]","2","0.5","1200","2000","1000","750","1920","968","1920","1080","0.64","","2774","86","","","img/food_items/0460.jpg","50","stage_1_trial","1","48","img/food_items/0460.jpg","0460","86","","","","","","","","","","","","","","","","","","","","",""
"image-slider-response","57","340704","0.0-7.0-2.0-0.9","5ac78faa68b65b00018d72a1","61efc64a8ec3b24bc537c194","620d125fa734c9a6ce0ca2c8","10","10","1","360","90","4","[[0.2,0.8],[0.4,0.6]]","2","0.5","1200","2000","1000","750","1920","968","1920","1080","0.64","","3339","13","","","img/food_items/0308.jpg","50","stage_1_trial","1","49","img/food_items/0308.jpg","0308","13","","","","","","","","","","","","","","","","","","","","",""
"image-slider-response","58","342731","0.0-7.0-2.0-0.10","5ac78faa68b65b00018d72a1","61efc64a8ec3b24bc537c194","620d125fa734c9a6ce0ca2c8","10","10","1","360","90","4","[[0.2,0.8],[0.4,0.6]]","2","0.5","1200","2000","1000","750","1920","968","1920","1080","0.64","","2022","100","","","img/food_items/0399.jpg","50","stage_1_trial","1","50","img/food_items/0399.jpg","0399","100","","","","","","","","","","","","","","","","","","","","",""
"image-slider-response","59","345323","0.0-7.0-2.0-0.11","5ac78faa68b65b00018d72a1","61efc64a8ec3b24bc537c194","620d125fa734c9a6ce0ca2c8","10","10","1","360","90","4","[[0.2,0.8],[0.4,0.6]]","2","0.5","1200","2000","1000","750","1920","968","1920","1080","0.64","","2588","71","","","img/food_items/0199.jpg","50","stage_1_trial","1","51","img/food_items/0199.jpg","0199","71","","","","","","","","","","","","","","","","","","","","",""
"image-slider-response","60","347775","0.0-7.0-2.0-0.12","5ac78faa68b65b00018d72a1","61efc64a8ec3b24bc537c194","620d125fa734c9a6ce0ca2c8","10","10","1","360","90","4","[[0.2,0.8],[0.4,0.6]]","2","0.5","1200","2000","1000","750","1920","968","1920","1080","0.64","","2447","0","","","img/food_items/0496.jpg","50","stage_1_trial","1","52","img/food_items/0496.jpg","0496","0","","","","","","","","","","","","","","","","","","","","",""
"image-slider-response","61","352645","0.0-7.0-2.0-0.13","5ac78faa68b65b00018d72a1","61efc64a8ec3b24bc537c194","620d125fa734c9a6ce0ca2c8","10","10","1","360","90","4","[[0.2,0.8],[0.4,0.6]]","2","0.5","1200","2000","1000","750","1920","968","1920","1080","0.64","","4866","55","","","img/food_items/0515.jpg","50","stage_1_trial","1","53","img/food_items/0515.jpg","0515","55","","","","","","","","","","","","","","","","","","","","",""
"image-slider-response","62","356751","0.0-7.0-2.0-0.14","5ac78faa68b65b00018d72a1","61efc64a8ec3b24bc537c194","620d125fa734c9a6ce0ca2c8","10","10","1","360","90","4","[[0.2,0.8],[0.4,0.6]]","2","0.5","1200","2000","1000","750","1920","968","1920","1080","0.64","","4103","55","","","img/food_items/0116.jpg","50","stage_1_trial","1","54","img/food_items/0116.jpg","0116","55","","","","","","","","","","","","","","","","","","","","",""
"image-slider-response","63","360833","0.0-7.0-2.0-0.15","5ac78faa68b65b00018d72a1","61efc64a8ec3b24bc537c194","620d125fa734c9a6ce0ca2c8","10","10","1","360","90","4","[[0.2,0.8],[0.4,0.6]]","2","0.5","1200","2000","1000","750","1920","968","1920","1080","0.64","","4077","60","","","img/food_items/0507.jpg","50","stage_1_trial","1","55","img/food_items/0507.jpg","0507","60","","","","","","","","","","","","","","","","","","","","",""
"image-slider-response","64","364091","0.0-7.0-2.0-0.16","5ac78faa68b65b00018d72a1","61efc64a8ec3b24bc537c194","620d125fa734c9a6ce0ca2c8","10","10","1","360","90","4","[[0.2,0.8],[0.4,0.6]]","2","0.5","1200","2000","1000","750","1920","968","1920","1080","0.64","","3254","76","","","img/food_items/0070.jpg","50","stage_1_trial","1","56","img/food_items/0070.jpg","0070","76","","","","","","","","","","","","","","","","","","","","",""
"image-slider-response","65","367285","0.0-7.0-2.0-0.17","5ac78faa68b65b00018d72a1","61efc64a8ec3b24bc537c194","620d125fa734c9a6ce0ca2c8","10","10","1","360","90","4","[[0.2,0.8],[0.4,0.6]]","2","0.5","1200","2000","1000","750","1920","968","1920","1080","0.64","","3187","24","","","img/food_items/0626.jpg","50","stage_1_trial","1","57","img/food_items/0626.jpg","0626","24","","","","","","","","","","","","","","","","","","","","",""
"image-slider-response","66","369477","0.0-7.0-2.0-0.18","5ac78faa68b65b00018d72a1","61efc64a8ec3b24bc537c194","620d125fa734c9a6ce0ca2c8","10","10","1","360","90","4","[[0.2,0.8],[0.4,0.6]]","2","0.5","1200","2000","1000","750","1920","968","1920","1080","0.64","","2188","100","","","img/food_items/0360.jpg","50","stage_1_trial","1","58","img/food_items/0360.jpg","0360","100","","","","","","","","","","","","","","","","","","","","",""
"image-slider-response","67","371864","0.0-7.0-2.0-0.19","5ac78faa68b65b00018d72a1","61efc64a8ec3b24bc537c194","620d125fa734c9a6ce0ca2c8","10","10","1","360","90","4","[[0.2,0.8],[0.4,0.6]]","2","0.5","1200","2000","1000","750","1920","968","1920","1080","0.64","","2383","100","","","img/food_items/0467.jpg","50","stage_1_trial","1","59","img/food_items/0467.jpg","0467","100","","","","","","","","","","","","","","","","","","","","",""
"image-slider-response","68","375313","0.0-7.0-2.0-0.20","5ac78faa68b65b00018d72a1","61efc64a8ec3b24bc537c194","620d125fa734c9a6ce0ca2c8","10","10","1","360","90","4","[[0.2,0.8],[0.4,0.6]]","2","0.5","1200","2000","1000","750","1920","968","1920","1080","0.64","","3441","25","","","img/food_items/0287.jpg","50","stage_1_trial","1","60","img/food_items/0287.jpg","0287","25","","","","","","","","","","","","","","","","","","","","",""
"image-slider-response","69","377925","0.0-7.0-2.0-0.21","5ac78faa68b65b00018d72a1","61efc64a8ec3b24bc537c194","620d125fa734c9a6ce0ca2c8","10","10","1","360","90","4","[[0.2,0.8],[0.4,0.6]]","2","0.5","1200","2000","1000","750","1920","968","1920","1080","0.64","","2611","50","","","img/food_items/0459.jpg","50","stage_1_trial","1","61","img/food_items/0459.jpg","0459","50","","","","","","","","","","","","","","","","","","","","",""
"image-slider-response","70","380649","0.0-7.0-2.0-0.22","5ac78faa68b65b00018d72a1","61efc64a8ec3b24bc537c194","620d125fa734c9a6ce0ca2c8","10","10","1","360","90","4","[[0.2,0.8],[0.4,0.6]]","2","0.5","1200","2000","1000","750","1920","968","1920","1080","0.64","","2719","29","","","img/food_items/0313.jpg","50","stage_1_trial","1","62","img/food_items/0313.jpg","0313","29","","","","","","","","","","","","","","","","","","","","",""
"image-slider-response","71","383384","0.0-7.0-2.0-0.23","5ac78faa68b65b00018d72a1","61efc64a8ec3b24bc537c194","620d125fa734c9a6ce0ca2c8","10","10","1","360","90","4","[[0.2,0.8],[0.4,0.6]]","2","0.5","1200","2000","1000","750","1920","968","1920","1080","0.64","","2731","61","","","img/food_items/0080.jpg","50","stage_1_trial","1","63","img/food_items/0080.jpg","0080","61","","","","","","","","","","","","","","","","","","","","",""
"image-slider-response","72","385228","0.0-7.0-2.0-0.24","5ac78faa68b65b00018d72a1","61efc64a8ec3b24bc537c194","620d125fa734c9a6ce0ca2c8","10","10","1","360","90","4","[[0.2,0.8],[0.4,0.6]]","2","0.5","1200","2000","1000","750","1920","968","1920","1080","0.64","","1836","100","","","img/food_items/0468.jpg","50","stage_1_trial","1","64","img/food_items/0468.jpg","0468","100","","","","","","","","","","","","","","","","","","","","",""
"image-slider-response","73","388255","0.0-7.0-2.0-0.25","5ac78faa68b65b00018d72a1","61efc64a8ec3b24bc537c194","620d125fa734c9a6ce0ca2c8","10","10","1","360","90","4","[[0.2,0.8],[0.4,0.6]]","2","0.5","1200","2000","1000","750","1920","968","1920","1080","0.64","","3020","33","","","img/food_items/0286.jpg","50","stage_1_trial","1","65","img/food_items/0286.jpg","0286","33","","","","","","","","","","","","","","","","","","","","",""
"image-slider-response","74","390440","0.0-7.0-2.0-0.26","5ac78faa68b65b00018d72a1","61efc64a8ec3b24bc537c194","620d125fa734c9a6ce0ca2c8","10","10","1","360","90","4","[[0.2,0.8],[0.4,0.6]]","2","0.5","1200","2000","1000","750","1920","968","1920","1080","0.64","","2181","14","","","img/food_items/0319.jpg","50","stage_1_trial","1","66","img/food_items/0319.jpg","0319","14","","","","","","","","","","","","","","","","","","","","",""
"image-slider-response","75","392482","0.0-7.0-2.0-0.27","5ac78faa68b65b00018d72a1","61efc64a8ec3b24bc537c194","620d125fa734c9a6ce0ca2c8","10","10","1","360","90","4","[[0.2,0.8],[0.4,0.6]]","2","0.5","1200","2000","1000","750","1920","968","1920","1080","0.64","","2037","100","","","img/food_items/0187.jpg","50","stage_1_trial","1","67","img/food_items/0187.jpg","0187","100","","","","","","","","","","","","","","","","","","","","",""
"image-slider-response","76","395081","0.0-7.0-2.0-0.28","5ac78faa68b65b00018d72a1","61efc64a8ec3b24bc537c194","620d125fa734c9a6ce0ca2c8","10","10","1","360","90","4","[[0.2,0.8],[0.4,0.6]]","2","0.5","1200","2000","1000","750","1920","968","1920","1080","0.64","","2592","100","","","img/food_items/0569.jpg","50","stage_1_trial","1","68","img/food_items/0569.jpg","0569","100","","","","","","","","","","","","","","","","","","","","",""
"image-slider-response","77","398198","0.0-7.0-2.0-0.29","5ac78faa68b65b00018d72a1","61efc64a8ec3b24bc537c194","620d125fa734c9a6ce0ca2c8","10","10","1","360","90","4","[[0.2,0.8],[0.4,0.6]]","2","0.5","1200","2000","1000","750","1920","968","1920","1080","0.64","","3113","59","","","img/food_items/0277.jpg","50","stage_1_trial","1","69","img/food_items/0277.jpg","0277","59","","","","","","","","","","","","","","","","","","","","",""
"image-slider-response","78","400872","0.0-7.0-2.0-0.30","5ac78faa68b65b00018d72a1","61efc64a8ec3b24bc537c194","620d125fa734c9a6ce0ca2c8","10","10","1","360","90","4","[[0.2,0.8],[0.4,0.6]]","2","0.5","1200","2000","1000","750","1920","968","1920","1080","0.64","","2662","70","","","img/food_items/0571.jpg","50","stage_1_trial","1","70","img/food_items/0571.jpg","0571","70","","","","","","","","","","","","","","","","","","","","",""
"image-slider-response","79","402714","0.0-7.0-2.0-0.31","5ac78faa68b65b00018d72a1","61efc64a8ec3b24bc537c194","620d125fa734c9a6ce0ca2c8","10","10","1","360","90","4","[[0.2,0.8],[0.4,0.6]]","2","0.5","1200","2000","1000","750","1920","968","1920","1080","0.64","","1837","19","","","img/food_items/0310.jpg","50","stage_1_trial","1","71","img/food_items/0310.jpg","0310","19","","","","","","","","","","","","","","","","","","","","",""
"image-slider-response","80","404964","0.0-7.0-2.0-0.32","5ac78faa68b65b00018d72a1","61efc64a8ec3b24bc537c194","620d125fa734c9a6ce0ca2c8","10","10","1","360","90","4","[[0.2,0.8],[0.4,0.6]]","2","0.5","1200","2000","1000","750","1920","968","1920","1080","0.64","","2244","74","","","img/food_items/0422.jpg","50","stage_1_trial","1","72","img/food_items/0422.jpg","0422","74","","","","","","","","","","","","","","","","","","","","",""
"image-slider-response","81","407436","0.0-7.0-2.0-0.33","5ac78faa68b65b00018d72a1","61efc64a8ec3b24bc537c194","620d125fa734c9a6ce0ca2c8","10","10","1","360","90","4","[[0.2,0.8],[0.4,0.6]]","2","0.5","1200","2000","1000","750","1920","968","1920","1080","0.64","","2468","39","","","img/food_items/0162.jpg","50","stage_1_trial","1","73","img/food_items/0162.jpg","0162","39","","","","","","","","","","","","","","","","","","","","",""
"image-slider-response","82","409932","0.0-7.0-2.0-0.34","5ac78faa68b65b00018d72a1","61efc64a8ec3b24bc537c194","620d125fa734c9a6ce0ca2c8","10","10","1","360","90","4","[[0.2,0.8],[0.4,0.6]]","2","0.5","1200","2000","1000","750","1920","968","1920","1080","0.64","","2491","73","","","img/food_items/0249.jpg","50","stage_1_trial","1","74","img/food_items/0249.jpg","0249","73","","","","","","","","","","","","","","","","","","","","",""
"image-slider-response","83","412639","0.0-7.0-2.0-0.35","5ac78faa68b65b00018d72a1","61efc64a8ec3b24bc537c194","620d125fa734c9a6ce0ca2c8","10","10","1","360","90","4","[[0.2,0.8],[0.4,0.6]]","2","0.5","1200","2000","1000","750","1920","968","1920","1080","0.64","","2703","49","","","img/food_items/0504.jpg","50","stage_1_trial","1","75","img/food_items/0504.jpg","0504","49","","","","","","","","","","","","","","","","","","","","",""
"image-slider-response","84","415442","0.0-7.0-2.0-0.36","5ac78faa68b65b00018d72a1","61efc64a8ec3b24bc537c194","620d125fa734c9a6ce0ca2c8","10","10","1","360","90","4","[[0.2,0.8],[0.4,0.6]]","2","0.5","1200","2000","1000","750","1920","968","1920","1080","0.64","","2799","68","","","img/food_items/0801.jpg","50","stage_1_trial","1","76","img/food_items/0801.jpg","0801","68","","","","","","","","","","","","","","","","","","","","",""
"image-slider-response","85","419050","0.0-7.0-2.0-0.37","5ac78faa68b65b00018d72a1","61efc64a8ec3b24bc537c194","620d125fa734c9a6ce0ca2c8","10","10","1","360","90","4","[[0.2,0.8],[0.4,0.6]]","2","0.5","1200","2000","1000","750","1920","968","1920","1080","0.64","","3603","50","","","img/food_items/0041.jpg","50","stage_1_trial","1","77","img/food_items/0041.jpg","0041","50","","","","","","","","","","","","","","","","","","","","",""
"image-slider-response","86","421080","0.0-7.0-2.0-0.38","5ac78faa68b65b00018d72a1","61efc64a8ec3b24bc537c194","620d125fa734c9a6ce0ca2c8","10","10","1","360","90","4","[[0.2,0.8],[0.4,0.6]]","2","0.5","1200","2000","1000","750","1920","968","1920","1080","0.64","","2027","28","","","img/food_items/0189.jpg","50","stage_1_trial","1","78","img/food_items/0189.jpg","0189","28","","","","","","","","","","","","","","","","","","","","",""
"image-slider-response","87","423074","0.0-7.0-2.0-0.39","5ac78faa68b65b00018d72a1","61efc64a8ec3b24bc537c194","620d125fa734c9a6ce0ca2c8","10","10","1","360","90","4","[[0.2,0.8],[0.4,0.6]]","2","0.5","1200","2000","1000","750","1920","968","1920","1080","0.64","","1989","100","","","img/food_items/0380.jpg","50","stage_1_trial","1","79","img/food_items/0380.jpg","0380","100","","","","","","","","","","","","","","","","","","","","",""
"pavlovia","88","423093","0.0-9.0-0.0","5ac78faa68b65b00018d72a1","61efc64a8ec3b24bc537c194","620d125fa734c9a6ce0ca2c8","10","10","1","360","90","4","[[0.2,0.8],[0.4,0.6]]","2","0.5","1200","2000","1000","750","1920","968","1920","1080","0.64","","","","","","","","","","","","","","","","","","","","","","","","","","","","","","","","","",""
"call-function","89","423110","0.0-10.0","5ac78faa68b65b00018d72a1","61efc64a8ec3b24bc537c194","620d125fa734c9a6ce0ca2c8","10","10","1","360","90","4","[[0.2,0.8],[0.4,0.6]]","2","0.5","1200","2000","1000","750","1920","968","1920","1080","0.64","","","","","","","","","","","","","","","","","","","","","","","","","","","","","","","","","",""
"instructions","90","535487","0.0-11.0","5ac78faa68b65b00018d72a1","61efc64a8ec3b24bc537c194","620d125fa734c9a6ce0ca2c8","10","10","1","360","90","4","[[0.2,0.8],[0.4,0.6]]","2","0.5","1200","2000","1000","750","1920","968","1920","1080","0.64","[{""page_index"":0,""viewing_time"":7967},{""page_index"":1,""viewing_time"":19401},{""page_index"":2,""viewing_time"":37076},{""page_index"":3,""viewing_time"":14975},{""page_index"":4,""viewing_time"":13073},{""page_index"":5,""viewing_time"":7469},{""page_index"":6,""viewing_time"":10332},{""page_index"":7,""viewing_time"":2083}]","112376","","","","","","","","","","","","","","","","","","","","","","","","","","","","","","","",""
"instructions","91","539137","0.0-12.0","5ac78faa68b65b00018d72a1","61efc64a8ec3b24bc537c194","620d125fa734c9a6ce0ca2c8","10","10","1","360","90","4","[[0.2,0.8],[0.4,0.6]]","2","0.5","1200","2000","1000","750","1920","968","1920","1080","0.64","[{""page_index"":0,""viewing_time"":3647}]","3648","","","","","","","","","","","","","","","","","","","","","","","","","","","","","","","",""
"html-keyboard-response","92","540344","0.0-13.0-0.0-0.0","5ac78faa68b65b00018d72a1","61efc64a8ec3b24bc537c194","620d125fa734c9a6ce0ca2c8","10","10","1","360","90","4","[[0.2,0.8],[0.4,0.6]]","2","0.5","1200","2000","1000","750","1920","968","1920","1080","0.64","","null","null","","","<div id=""parent_container""><div class=""food-container""><img id=""item_1"" class=""food-item"" src=""img/food_items/0029.jpg""></div><div id=""chart_container""></div><div class=""food-container""><img id=""item_2"" class=""food-item"" src=""img/food_items/0001.jpg""></div></div>","","stage_2_rating_images_only","0","0","","","","","true","","","","","","","","","","","","","","","","","","",""
"reward","93","542276","0.0-13.0-0.0-1.0","5ac78faa68b65b00018d72a1","61efc64a8ec3b24bc537c194","620d125fa734c9a6ce0ca2c8","10","10","1","360","90","4","[[0.2,0.8],[0.4,0.6]]","2","0.5","1200","2000","1000","750","1920","968","1920","1080","0.64","","1928","arrowright","","","<div id=""parent_container""><div class=""food-container""><img id=""item_1"" class=""food-item"" src=""img/white_rectangle.jpg""></div><div id=""chart_container""><img id=""trial_type_img"" src=""img/reward_icon.png""></div><div class=""food-container""><img id=""item_2"" class=""food-item"" src=""img/white_rectangle.jpg""></div></div>","","stage_2_rating_trial","0","0","","","","","true","0029","","","blue","0.1","0001","","","red","0.9","","2","1","100","","","","",""
"html-keyboard-response","94","543278","0.0-13.0-0.0-4.0-0.0","5ac78faa68b65b00018d72a1","61efc64a8ec3b24bc537c194","620d125fa734c9a6ce0ca2c8","10","10","1","360","90","4","[[0.2,0.8],[0.4,0.6]]","2","0.5","1200","2000","1000","750","1920","968","1920","1080","0.64","","null","null","","","","","stage_2_feedback_trial","0","0","","","","","true","","","","","","","","","","","","","","","","","","",""
"html-keyboard-response","95","545822","0.0-13.0-0.0-0.1","5ac78faa68b65b00018d72a1","61efc64a8ec3b24bc537c194","620d125fa734c9a6ce0ca2c8","10","10","1","360","90","4","[[0.2,0.8],[0.4,0.6]]","2","0.5","1200","2000","1000","750","1920","968","1920","1080","0.64","","null","null","","","<div id=""parent_container""><div class=""food-container""><img id=""item_1"" class=""food-item"" src=""img/food_items/0024.jpg""></div><div id=""chart_container""></div><div class=""food-container""><img id=""item_2"" class=""food-item"" src=""img/food_items/0001.jpg""></div></div>","","stage_2_rating_images_only","0","1","","","","","true","","","","","","","","","","","","","","","","","","",""
"reward","96","547466","0.0-13.0-0.0-1.1","5ac78faa68b65b00018d72a1","61efc64a8ec3b24bc537c194","620d125fa734c9a6ce0ca2c8","10","10","1","360","90","4","[[0.2,0.8],[0.4,0.6]]","2","0.5","1200","2000","1000","750","1920","968","1920","1080","0.64","","1641","arrowright","","","<div id=""parent_container""><div class=""food-container""><img id=""item_1"" class=""food-item"" src=""img/white_rectangle.jpg""></div><div id=""chart_container""><img id=""trial_type_img"" src=""img/reward_icon.png""></div><div class=""food-container""><img id=""item_2"" class=""food-item"" src=""img/white_rectangle.jpg""></div></div>","","stage_2_rating_trial","0","1","","","","","true","0024","","","red","0.9","0001","","","blue","0.1","","2","1","0","","","","",""
"html-keyboard-response","97","548468","0.0-13.0-0.0-4.1-0.1","5ac78faa68b65b00018d72a1","61efc64a8ec3b24bc537c194","620d125fa734c9a6ce0ca2c8","10","10","1","360","90","4","[[0.2,0.8],[0.4,0.6]]","2","0.5","1200","2000","1000","750","1920","968","1920","1080","0.64","","null","null","","","","","stage_2_feedback_trial","0","1","","","","","true","","","","","","","","","","","","","","","","","","",""
"html-keyboard-response","98","551012","0.0-13.0-0.0-0.2","5ac78faa68b65b00018d72a1","61efc64a8ec3b24bc537c194","620d125fa734c9a6ce0ca2c8","10","10","1","360","90","4","[[0.2,0.8],[0.4,0.6]]","2","0.5","1200","2000","1000","750","1920","968","1920","1080","0.64","","null","null","","","<div id=""parent_container""><div class=""food-container""><img id=""item_1"" class=""food-item"" src=""img/food_items/0012.jpg""></div><div id=""chart_container""></div><div class=""food-container""><img id=""item_2"" class=""food-item"" src=""img/food_items/0001.jpg""></div></div>","","stage_2_rating_images_only","0","2","","","","","true","","","","","","","","","","","","","","","","","","",""
"reward","99","553017","0.0-13.0-0.0-1.2","5ac78faa68b65b00018d72a1","61efc64a8ec3b24bc537c194","620d125fa734c9a6ce0ca2c8","10","10","1","360","90","4","[[0.2,0.8],[0.4,0.6]]","2","0.5","1200","2000","1000","750","1920","968","1920","1080","0.64","","null","null","","","<div id=""parent_container""><div class=""food-container""><img id=""item_1"" class=""food-item"" src=""img/white_rectangle.jpg""></div><div id=""chart_container""><img id=""trial_type_img"" src=""img/reward_icon.png""></div><div class=""food-container""><img id=""item_2"" class=""food-item"" src=""img/white_rectangle.jpg""></div></div>","","stage_2_rating_trial","0","2","","","","","true","0012","","","red","0.9","0001","","","blue","0.1","","","","","","","","",""
"html-keyboard-response","100","553771","0.0-13.0-0.0-2.2-0.2","5ac78faa68b65b00018d72a1","61efc64a8ec3b24bc537c194","620d125fa734c9a6ce0ca2c8","10","10","1","360","90","4","[[0.2,0.8],[0.4,0.6]]","2","0.5","1200","2000","1000","750","1920","968","1920","1080","0.64","","null","null","","","<p style=""font-size: 40px; color: red"">TOO SLOW</p>","","stage_2_too_slow_feedback","0","2","","","","","true","","","","","","","","","","","","","","","","","","",""
"html-keyboard-response","101","556237","0.0-13.0-0.0-0.3","5ac78faa68b65b00018d72a1","61efc64a8ec3b24bc537c194","620d125fa734c9a6ce0ca2c8","10","10","1","360","90","4","[[0.2,0.8],[0.4,0.6]]","2","0.5","1200","2000","1000","750","1920","968","1920","1080","0.64","","null","null","","","<div id=""parent_container""><div class=""food-container""><img id=""item_1"" class=""food-item"" src=""img/food_items/0015.jpg""></div><div id=""chart_container""></div><div class=""food-container""><img id=""item_2"" class=""food-item"" src=""img/food_items/0001.jpg""></div></div>","","stage_2_rating_images_only","0","3","","","","","true","","","","","","","","","","","","","","","","","","",""
"preference","102","556804","0.0-13.0-0.0-1.3","5ac78faa68b65b00018d72a1","61efc64a8ec3b24bc537c194","620d125fa734c9a6ce0ca2c8","10","10","1","360","90","4","[[0.2,0.8],[0.4,0.6]]","2","0.5","1200","2000","1000","750","1920","968","1920","1080","0.64","","564","arrowright","","","<div id=""parent_container""><div class=""food-container""><img id=""item_1"" class=""food-item"" src=""img/white_rectangle.jpg""></div><div id=""chart_container""><img id=""trial_type_img"" src=""img/pref_icon.png""></div><div class=""food-container""><img id=""item_2"" class=""food-item"" src=""img/white_rectangle.jpg""></div></div>","","stage_2_rating_trial","0","3","","","","","true","0015","","","red","0.9","0001","","","blue","0.1","","2","1","100","","","","",""
"html-keyboard-response","103","557805","0.0-13.0-0.0-4.3-0.3","5ac78faa68b65b00018d72a1","61efc64a8ec3b24bc537c194","620d125fa734c9a6ce0ca2c8","10","10","1","360","90","4","[[0.2,0.8],[0.4,0.6]]","2","0.5","1200","2000","1000","750","1920","968","1920","1080","0.64","","null","null","","","","","stage_2_feedback_trial","0","3","","","","","true","","","","","","","","","","","","","","","","","","",""
"html-keyboard-response","104","560349","0.0-13.0-0.0-0.4","5ac78faa68b65b00018d72a1","61efc64a8ec3b24bc537c194","620d125fa734c9a6ce0ca2c8","10","10","1","360","90","4","[[0.2,0.8],[0.4,0.6]]","2","0.5","1200","2000","1000","750","1920","968","1920","1080","0.64","","null","null","","","<div id=""parent_container""><div class=""food-container""><img id=""item_1"" class=""food-item"" src=""img/food_items/0002.jpg""></div><div id=""chart_container""></div><div class=""food-container""><img id=""item_2"" class=""food-item"" src=""img/food_items/0001.jpg""></div></div>","","stage_2_rating_images_only","0","4","","","","","true","","","","","","","","","","","","","","","","","","",""
"reward","105","561662","0.0-13.0-0.0-1.4","5ac78faa68b65b00018d72a1","61efc64a8ec3b24bc537c194","620d125fa734c9a6ce0ca2c8","10","10","1","360","90","4","[[0.2,0.8],[0.4,0.6]]","2","0.5","1200","2000","1000","750","1920","968","1920","1080","0.64","","1311","arrowleft","","","<div id=""parent_container""><div class=""food-container""><img id=""item_1"" class=""food-item"" src=""img/white_rectangle.jpg""></div><div id=""chart_container""><img id=""trial_type_img"" src=""img/reward_icon.png""></div><div class=""food-container""><img id=""item_2"" class=""food-item"" src=""img/white_rectangle.jpg""></div></div>","","stage_2_rating_trial","0","4","","","","","true","0002","","","red","0.9","0001","","","blue","0.1","","1","1","100","","","","",""
"html-keyboard-response","106","562664","0.0-13.0-0.0-4.4-0.4","5ac78faa68b65b00018d72a1","61efc64a8ec3b24bc537c194","620d125fa734c9a6ce0ca2c8","10","10","1","360","90","4","[[0.2,0.8],[0.4,0.6]]","2","0.5","1200","2000","1000","750","1920","968","1920","1080","0.64","","null","null","","","","","stage_2_feedback_trial","0","4","","","","","true","","","","","","","","","","","","","","","","","","",""
"html-keyboard-response","107","565207","0.0-13.0-0.0-0.5","5ac78faa68b65b00018d72a1","61efc64a8ec3b24bc537c194","620d125fa734c9a6ce0ca2c8","10","10","1","360","90","4","[[0.2,0.8],[0.4,0.6]]","2","0.5","1200","2000","1000","750","1920","968","1920","1080","0.64","","null","null","","","<div id=""parent_container""><div class=""food-container""><img id=""item_1"" class=""food-item"" src=""img/food_items/0023.jpg""></div><div id=""chart_container""></div><div class=""food-container""><img id=""item_2"" class=""food-item"" src=""img/food_items/0001.jpg""></div></div>","","stage_2_rating_images_only","0","5","","","","","true","","","","","","","","","","","","","","","","","","",""
"reward","108","566564","0.0-13.0-0.0-1.5","5ac78faa68b65b00018d72a1","61efc64a8ec3b24bc537c194","620d125fa734c9a6ce0ca2c8","10","10","1","360","90","4","[[0.2,0.8],[0.4,0.6]]","2","0.5","1200","2000","1000","750","1920","968","1920","1080","0.64","","1354","arrowleft","","","<div id=""parent_container""><div class=""food-container""><img id=""item_1"" class=""food-item"" src=""img/white_rectangle.jpg""></div><div id=""chart_container""><img id=""trial_type_img"" src=""img/reward_icon.png""></div><div class=""food-container""><img id=""item_2"" class=""food-item"" src=""img/white_rectangle.jpg""></div></div>","","stage_2_rating_trial","0","5","","","","","true","0023","","","red","0.9","0001","","","blue","0.1","","1","1","100","","","","",""
"html-keyboard-response","109","567566","0.0-13.0-0.0-4.5-0.5","5ac78faa68b65b00018d72a1","61efc64a8ec3b24bc537c194","620d125fa734c9a6ce0ca2c8","10","10","1","360","90","4","[[0.2,0.8],[0.4,0.6]]","2","0.5","1200","2000","1000","750","1920","968","1920","1080","0.64","","null","null","","","","","stage_2_feedback_trial","0","5","","","","","true","","","","","","","","","","","","","","","","","","",""
"html-keyboard-response","110","570109","0.0-13.0-0.0-0.6","5ac78faa68b65b00018d72a1","61efc64a8ec3b24bc537c194","620d125fa734c9a6ce0ca2c8","10","10","1","360","90","4","[[0.2,0.8],[0.4,0.6]]","2","0.5","1200","2000","1000","750","1920","968","1920","1080","0.64","","null","null","","","<div id=""parent_container""><div class=""food-container""><img id=""item_1"" class=""food-item"" src=""img/food_items/0034.jpg""></div><div id=""chart_container""></div><div class=""food-container""><img id=""item_2"" class=""food-item"" src=""img/food_items/0001.jpg""></div></div>","","stage_2_rating_images_only","0","6","","","","","true","","","","","","","","","","","","","","","","","","",""
"reward","111","571211","0.0-13.0-0.0-1.6","5ac78faa68b65b00018d72a1","61efc64a8ec3b24bc537c194","620d125fa734c9a6ce0ca2c8","10","10","1","360","90","4","[[0.2,0.8],[0.4,0.6]]","2","0.5","1200","2000","1000","750","1920","968","1920","1080","0.64","","1099","arrowleft","","","<div id=""parent_container""><div class=""food-container""><img id=""item_1"" class=""food-item"" src=""img/white_rectangle.jpg""></div><div id=""chart_container""><img id=""trial_type_img"" src=""img/reward_icon.png""></div><div class=""food-container""><img id=""item_2"" class=""food-item"" src=""img/white_rectangle.jpg""></div></div>","","stage_2_rating_trial","0","6","","","","","true","0034","","","red","0.9","0001","","","blue","0.1","","1","1","100","","","","",""
"html-keyboard-response","112","572212","0.0-13.0-0.0-4.6-0.6","5ac78faa68b65b00018d72a1","61efc64a8ec3b24bc537c194","620d125fa734c9a6ce0ca2c8","10","10","1","360","90","4","[[0.2,0.8],[0.4,0.6]]","2","0.5","1200","2000","1000","750","1920","968","1920","1080","0.64","","null","null","","","","","stage_2_feedback_trial","0","6","","","","","true","","","","","","","","","","","","","","","","","","",""
"html-keyboard-response","113","574755","0.0-13.0-0.0-0.7","5ac78faa68b65b00018d72a1","61efc64a8ec3b24bc537c194","620d125fa734c9a6ce0ca2c8","10","10","1","360","90","4","[[0.2,0.8],[0.4,0.6]]","2","0.5","1200","2000","1000","750","1920","968","1920","1080","0.64","","null","null","","","<div id=""parent_container""><div class=""food-container""><img id=""item_1"" class=""food-item"" src=""img/food_items/0027.jpg""></div><div id=""chart_container""></div><div class=""food-container""><img id=""item_2"" class=""food-item"" src=""img/food_items/0001.jpg""></div></div>","","stage_2_rating_images_only","0","7","","","","","true","","","","","","","","","","","","","","","","","","",""
"preference","114","576375","0.0-13.0-0.0-1.7","5ac78faa68b65b00018d72a1","61efc64a8ec3b24bc537c194","620d125fa734c9a6ce0ca2c8","10","10","1","360","90","4","[[0.2,0.8],[0.4,0.6]]","2","0.5","1200","2000","1000","750","1920","968","1920","1080","0.64","","1617","arrowright","","","<div id=""parent_container""><div class=""food-container""><img id=""item_1"" class=""food-item"" src=""img/white_rectangle.jpg""></div><div id=""chart_container""><img id=""trial_type_img"" src=""img/pref_icon.png""></div><div class=""food-container""><img id=""item_2"" class=""food-item"" src=""img/white_rectangle.jpg""></div></div>","","stage_2_rating_trial","0","7","","","","","true","0027","","","blue","0.1","0001","","","red","0.9","","2","1","100","","","","",""
"html-keyboard-response","115","577377","0.0-13.0-0.0-4.7-0.7","5ac78faa68b65b00018d72a1","61efc64a8ec3b24bc537c194","620d125fa734c9a6ce0ca2c8","10","10","1","360","90","4","[[0.2,0.8],[0.4,0.6]]","2","0.5","1200","2000","1000","750","1920","968","1920","1080","0.64","","null","null","","","","","stage_2_feedback_trial","0","7","","","","","true","","","","","","","","","","","","","","","","","","",""
"html-keyboard-response","116","579920","0.0-13.0-0.0-0.8","5ac78faa68b65b00018d72a1","61efc64a8ec3b24bc537c194","620d125fa734c9a6ce0ca2c8","10","10","1","360","90","4","[[0.2,0.8],[0.4,0.6]]","2","0.5","1200","2000","1000","750","1920","968","1920","1080","0.64","","null","null","","","<div id=""parent_container""><div class=""food-container""><img id=""item_1"" class=""food-item"" src=""img/food_items/0030.jpg""></div><div id=""chart_container""></div><div class=""food-container""><img id=""item_2"" class=""food-item"" src=""img/food_items/0001.jpg""></div></div>","","stage_2_rating_images_only","0","8","","","","","true","","","","","","","","","","","","","","","","","","",""
"preference","117","581252","0.0-13.0-0.0-1.8","5ac78faa68b65b00018d72a1","61efc64a8ec3b24bc537c194","620d125fa734c9a6ce0ca2c8","10","10","1","360","90","4","[[0.2,0.8],[0.4,0.6]]","2","0.5","1200","2000","1000","750","1920","968","1920","1080","0.64","","1329","arrowright","","","<div id=""parent_container""><div class=""food-container""><img id=""item_1"" class=""food-item"" src=""img/white_rectangle.jpg""></div><div id=""chart_container""><img id=""trial_type_img"" src=""img/pref_icon.png""></div><div class=""food-container""><img id=""item_2"" class=""food-item"" src=""img/white_rectangle.jpg""></div></div>","","stage_2_rating_trial","0","8","","","","","true","0030","","","blue","0.1","0001","","","red","0.9","","2","1","100","","","","",""
"html-keyboard-response","118","582255","0.0-13.0-0.0-4.8-0.8","5ac78faa68b65b00018d72a1","61efc64a8ec3b24bc537c194","620d125fa734c9a6ce0ca2c8","10","10","1","360","90","4","[[0.2,0.8],[0.4,0.6]]","2","0.5","1200","2000","1000","750","1920","968","1920","1080","0.64","","null","null","","","","","stage_2_feedback_trial","0","8","","","","","true","","","","","","","","","","","","","","","","","","",""
"html-keyboard-response","119","584798","0.0-13.0-0.0-0.9","5ac78faa68b65b00018d72a1","61efc64a8ec3b24bc537c194","620d125fa734c9a6ce0ca2c8","10","10","1","360","90","4","[[0.2,0.8],[0.4,0.6]]","2","0.5","1200","2000","1000","750","1920","968","1920","1080","0.64","","null","null","","","<div id=""parent_container""><div class=""food-container""><img id=""item_1"" class=""food-item"" src=""img/food_items/0022.jpg""></div><div id=""chart_container""></div><div class=""food-container""><img id=""item_2"" class=""food-item"" src=""img/food_items/0001.jpg""></div></div>","","stage_2_rating_images_only","0","9","","","","","true","","","","","","","","","","","","","","","","","","",""
"reward","120","586803","0.0-13.0-0.0-1.9","5ac78faa68b65b00018d72a1","61efc64a8ec3b24bc537c194","620d125fa734c9a6ce0ca2c8","10","10","1","360","90","4","[[0.2,0.8],[0.4,0.6]]","2","0.5","1200","2000","1000","750","1920","968","1920","1080","0.64","","null","null","","","<div id=""parent_container""><div class=""food-container""><img id=""item_1"" class=""food-item"" src=""img/white_rectangle.jpg""></div><div id=""chart_container""><img id=""trial_type_img"" src=""img/reward_icon.png""></div><div class=""food-container""><img id=""item_2"" class=""food-item"" src=""img/white_rectangle.jpg""></div></div>","","stage_2_rating_trial","0","9","","","","","true","0022","","","blue","0.1","0001","","","red","0.9","","","","","","","","",""
"html-keyboard-response","121","587554","0.0-13.0-0.0-2.9-0.9","5ac78faa68b65b00018d72a1","61efc64a8ec3b24bc537c194","620d125fa734c9a6ce0ca2c8","10","10","1","360","90","4","[[0.2,0.8],[0.4,0.6]]","2","0.5","1200","2000","1000","750","1920","968","1920","1080","0.64","","null","null","","","<p style=""font-size: 40px; color: red"">TOO SLOW</p>","","stage_2_too_slow_feedback","0","9","","","","","true","","","","","","","","","","","","","","","","","","",""
"instructions","122","596525","0.0-14.0","5ac78faa68b65b00018d72a1","61efc64a8ec3b24bc537c194","620d125fa734c9a6ce0ca2c8","10","10","1","360","90","4","[[0.2,0.8],[0.4,0.6]]","2","0.5","1200","2000","1000","750","1920","968","1920","1080","0.64","[{""page_index"":0,""viewing_time"":2254},{""page_index"":1,""viewing_time"":5911}]","8165","","","","","","","","","","","","","","","","","","","","","","","","","","","","","","","",""
"html-keyboard-response","123","597729","0.0-15.0-0.0-0.0","5ac78faa68b65b00018d72a1","61efc64a8ec3b24bc537c194","620d125fa734c9a6ce0ca2c8","10","10","1","360","90","4","[[0.2,0.8],[0.4,0.6]]","2","0.5","1200","2000","1000","750","1920","968","1920","1080","0.64","","null","null","","","<div id=""parent_container""><div class=""food-container""><img id=""item_1"" class=""food-item"" src=""img/food_items/0041.jpg""></div><div id=""chart_container""></div><div class=""food-container""><img id=""item_2"" class=""food-item"" src=""img/food_items/0755.jpg""></div></div>","","stage_2_rating_images_only","0","0","","","","","false","","","","","","","","","","","","","","","","","","",""
"preference","124","598491","0.0-15.0-0.0-1.0","5ac78faa68b65b00018d72a1","61efc64a8ec3b24bc537c194","620d125fa734c9a6ce0ca2c8","10","10","1","360","90","4","[[0.2,0.8],[0.4,0.6]]","2","0.5","1200","2000","1000","750","1920","968","1920","1080","0.64","","758","arrowright","","","<div id=""parent_container""><div class=""food-container""><img id=""item_1"" class=""food-item"" src=""img/white_rectangle.jpg""></div><div id=""chart_container""><img id=""trial_type_img"" src=""img/pref_icon.png""></div><div class=""food-container""><img id=""item_2"" class=""food-item"" src=""img/white_rectangle.jpg""></div></div>","","stage_2_rating_trial","0","0","","","","","false","0041","50","less_preferred","red","0.6","0755","100","more_preferred","blue","0.4","50","2","1","100","","","","",""
"html-keyboard-response","125","599492","0.0-15.0-0.0-4.0-0.0","5ac78faa68b65b00018d72a1","61efc64a8ec3b24bc537c194","620d125fa734c9a6ce0ca2c8","10","10","1","360","90","4","[[0.2,0.8],[0.4,0.6]]","2","0.5","1200","2000","1000","750","1920","968","1920","1080","0.64","","null","null","","","","","stage_2_feedback_trial","0","0","","","","","false","","","","","","","","","","","","","","","","","","",""
"html-keyboard-response","126","602037","0.0-15.0-0.0-0.1","5ac78faa68b65b00018d72a1","61efc64a8ec3b24bc537c194","620d125fa734c9a6ce0ca2c8","10","10","1","360","90","4","[[0.2,0.8],[0.4,0.6]]","2","0.5","1200","2000","1000","750","1920","968","1920","1080","0.64","","null","null","","","<div id=""parent_container""><div class=""food-container""><img id=""item_1"" class=""food-item"" src=""img/food_items/0459.jpg""></div><div id=""chart_container""></div><div class=""food-container""><img id=""item_2"" class=""food-item"" src=""img/food_items/0399.jpg""></div></div>","","stage_2_rating_images_only","0","1","","","","","false","","","","","","","","","","","","","","","","","","",""
"preference","127","603098","0.0-15.0-0.0-1.1","5ac78faa68b65b00018d72a1","61efc64a8ec3b24bc537c194","620d125fa734c9a6ce0ca2c8","10","10","1","360","90","4","[[0.2,0.8],[0.4,0.6]]","2","0.5","1200","2000","1000","750","1920","968","1920","1080","0.64","","1060","arrowright","","","<div id=""parent_container""><div class=""food-container""><img id=""item_1"" class=""food-item"" src=""img/white_rectangle.jpg""></div><div id=""chart_container""><img id=""trial_type_img"" src=""img/pref_icon.png""></div><div class=""food-container""><img id=""item_2"" class=""food-item"" src=""img/white_rectangle.jpg""></div></div>","","stage_2_rating_trial","0","1","","","","","false","0459","49.5","less_preferred","red","0.6","0399","100","more_preferred","blue","0.4","50.5","2","1","100","","","","",""
"html-keyboard-response","128","604100","0.0-15.0-0.0-4.1-0.1","5ac78faa68b65b00018d72a1","61efc64a8ec3b24bc537c194","620d125fa734c9a6ce0ca2c8","10","10","1","360","90","4","[[0.2,0.8],[0.4,0.6]]","2","0.5","1200","2000","1000","750","1920","968","1920","1080","0.64","","null","null","","","","","stage_2_feedback_trial","0","1","","","","","false","","","","","","","","","","","","","","","","","","",""
"html-keyboard-response","129","606643","0.0-15.0-0.0-0.2","5ac78faa68b65b00018d72a1","61efc64a8ec3b24bc537c194","620d125fa734c9a6ce0ca2c8","10","10","1","360","90","4","[[0.2,0.8],[0.4,0.6]]","2","0.5","1200","2000","1000","750","1920","968","1920","1080","0.64","","null","null","","","<div id=""parent_container""><div class=""food-container""><img id=""item_1"" class=""food-item"" src=""img/food_items/0496.jpg""></div><div id=""chart_container""></div><div class=""food-container""><img id=""item_2"" class=""food-item"" src=""img/food_items/0755.jpg""></div></div>","","stage_2_rating_images_only","0","2","","","","","false","","","","","","","","","","","","","","","","","","",""
"preference","130","607526","0.0-15.0-0.0-1.2","5ac78faa68b65b00018d72a1","61efc64a8ec3b24bc537c194","620d125fa734c9a6ce0ca2c8","10","10","1","360","90","4","[[0.2,0.8],[0.4,0.6]]","2","0.5","1200","2000","1000","750","1920","968","1920","1080","0.64","","880","arrowright","","","<div id=""parent_container""><div class=""food-container""><img id=""item_1"" class=""food-item"" src=""img/white_rectangle.jpg""></div><div id=""chart_container""><img id=""trial_type_img"" src=""img/pref_icon.png""></div><div class=""food-container""><img id=""item_2"" class=""food-item"" src=""img/white_rectangle.jpg""></div></div>","","stage_2_rating_trial","0","2","","","","","false","0496","0","less_preferred","red","0.6","0755","100","more_preferred","blue","0.4","100","2","1","100","","","","",""
"html-keyboard-response","131","608529","0.0-15.0-0.0-4.2-0.2","5ac78faa68b65b00018d72a1","61efc64a8ec3b24bc537c194","620d125fa734c9a6ce0ca2c8","10","10","1","360","90","4","[[0.2,0.8],[0.4,0.6]]","2","0.5","1200","2000","1000","750","1920","968","1920","1080","0.64","","null","null","","","","","stage_2_feedback_trial","0","2","","","","","false","","","","","","","","","","","","","","","","","","",""
"html-keyboard-response","132","611072","0.0-15.0-0.0-0.3","5ac78faa68b65b00018d72a1","61efc64a8ec3b24bc537c194","620d125fa734c9a6ce0ca2c8","10","10","1","360","90","4","[[0.2,0.8],[0.4,0.6]]","2","0.5","1200","2000","1000","750","1920","968","1920","1080","0.64","","null","null","","","<div id=""parent_container""><div class=""food-container""><img id=""item_1"" class=""food-item"" src=""img/food_items/0459.jpg""></div><div id=""chart_container""></div><div class=""food-container""><img id=""item_2"" class=""food-item"" src=""img/food_items/0360.jpg""></div></div>","","stage_2_rating_images_only","0","3","","","","","false","","","","","","","","","","","","","","","","","","",""
"reward","133","612114","0.0-15.0-0.0-1.3","5ac78faa68b65b00018d72a1","61efc64a8ec3b24bc537c194","620d125fa734c9a6ce0ca2c8","10","10","1","360","90","4","[[0.2,0.8],[0.4,0.6]]","2","0.5","1200","2000","1000","750","1920","968","1920","1080","0.64","","1040","arrowleft","","","<div id=""parent_container""><div class=""food-container""><img id=""item_1"" class=""food-item"" src=""img/white_rectangle.jpg""></div><div id=""chart_container""><img id=""trial_type_img"" src=""img/reward_icon.png""></div><div class=""food-container""><img id=""item_2"" class=""food-item"" src=""img/white_rectangle.jpg""></div></div>","","stage_2_rating_trial","0","3","","","","","false","0459","49.5","less_preferred","red","0.6","0360","100","more_preferred","blue","0.4","50.5","1","0","0","","","","",""
"html-keyboard-response","134","613117","0.0-15.0-0.0-4.3-0.3","5ac78faa68b65b00018d72a1","61efc64a8ec3b24bc537c194","620d125fa734c9a6ce0ca2c8","10","10","1","360","90","4","[[0.2,0.8],[0.4,0.6]]","2","0.5","1200","2000","1000","750","1920","968","1920","1080","0.64","","null","null","","","","","stage_2_feedback_trial","0","3","","","","","false","","","","","","","","","","","","","","","","","","",""
"html-keyboard-response","135","615659","0.0-15.0-0.0-0.4","5ac78faa68b65b00018d72a1","61efc64a8ec3b24bc537c194","620d125fa734c9a6ce0ca2c8","10","10","1","360","90","4","[[0.2,0.8],[0.4,0.6]]","2","0.5","1200","2000","1000","750","1920","968","1920","1080","0.64","","null","null","","","<div id=""parent_container""><div class=""food-container""><img id=""item_1"" class=""food-item"" src=""img/food_items/0459.jpg""></div><div id=""chart_container""></div><div class=""food-container""><img id=""item_2"" class=""food-item"" src=""img/food_items/0801.jpg""></div></div>","","stage_2_rating_images_only","0","4","","","","","false","","","","","","","","","","","","","","","","","","",""
"reward","136","616738","0.0-15.0-0.0-1.4","5ac78faa68b65b00018d72a1","61efc64a8ec3b24bc537c194","620d125fa734c9a6ce0ca2c8","10","10","1","360","90","4","[[0.2,0.8],[0.4,0.6]]","2","0.5","1200","2000","1000","750","1920","968","1920","1080","0.64","","1077","arrowright","","","<div id=""parent_container""><div class=""food-container""><img id=""item_1"" class=""food-item"" src=""img/white_rectangle.jpg""></div><div id=""chart_container""><img id=""trial_type_img"" src=""img/reward_icon.png""></div><div class=""food-container""><img id=""item_2"" class=""food-item"" src=""img/white_rectangle.jpg""></div></div>","","stage_2_rating_trial","0","4","","","","","false","0459","49.5","less_preferred","red","0.6","0801","73.5","more_preferred","blue","0.4","24","2","1","100","","","","",""
"html-keyboard-response","137","617740","0.0-15.0-0.0-4.4-0.4","5ac78faa68b65b00018d72a1","61efc64a8ec3b24bc537c194","620d125fa734c9a6ce0ca2c8","10","10","1","360","90","4","[[0.2,0.8],[0.4,0.6]]","2","0.5","1200","2000","1000","750","1920","968","1920","1080","0.64","","null","null","","","","","stage_2_feedback_trial","0","4","","","","","false","","","","","","","","","","","","","","","","","","",""
"html-keyboard-response","138","620283","0.0-15.0-0.0-0.5","5ac78faa68b65b00018d72a1","61efc64a8ec3b24bc537c194","620d125fa734c9a6ce0ca2c8","10","10","1","360","90","4","[[0.2,0.8],[0.4,0.6]]","2","0.5","1200","2000","1000","750","1920","968","1920","1080","0.64","","null","null","","","<div id=""parent_container""><div class=""food-container""><img id=""item_1"" class=""food-item"" src=""img/food_items/0286.jpg""></div><div id=""chart_container""></div><div class=""food-container""><img id=""item_2"" class=""food-item"" src=""img/food_items/0319.jpg""></div></div>","","stage_2_rating_images_only","0","5","","","","","false","","","","","","","","","","","","","","","","","","",""
"reward","139","621471","0.0-15.0-0.0-1.5","5ac78faa68b65b00018d72a1","61efc64a8ec3b24bc537c194","620d125fa734c9a6ce0ca2c8","10","10","1","360","90","4","[[0.2,0.8],[0.4,0.6]]","2","0.5","1200","2000","1000","750","1920","968","1920","1080","0.64","","1186","arrowleft","","","<div id=""parent_container""><div class=""food-container""><img id=""item_1"" class=""food-item"" src=""img/white_rectangle.jpg""></div><div id=""chart_container""><img id=""trial_type_img"" src=""img/reward_icon.png""></div><div class=""food-container""><img id=""item_2"" class=""food-item"" src=""img/white_rectangle.jpg""></div></div>","","stage_2_rating_trial","0","5","","","","","false","0286","34.5","more_preferred","blue","0.4","0319","12.5","less_preferred","red","0.6","-22","1","1","100","","","","",""
"html-keyboard-response","140","622473","0.0-15.0-0.0-4.5-0.5","5ac78faa68b65b00018d72a1","61efc64a8ec3b24bc537c194","620d125fa734c9a6ce0ca2c8","10","10","1","360","90","4","[[0.2,0.8],[0.4,0.6]]","2","0.5","1200","2000","1000","750","1920","968","1920","1080","0.64","","null","null","","","","","stage_2_feedback_trial","0","5","","","","","false","","","","","","","","","","","","","","","","","","",""
"html-keyboard-response","141","625018","0.0-15.0-0.0-0.6","5ac78faa68b65b00018d72a1","61efc64a8ec3b24bc537c194","620d125fa734c9a6ce0ca2c8","10","10","1","360","90","4","[[0.2,0.8],[0.4,0.6]]","2","0.5","1200","2000","1000","750","1920","968","1920","1080","0.64","","null","null","","","<div id=""parent_container""><div class=""food-container""><img id=""item_1"" class=""food-item"" src=""img/food_items/0614.jpg""></div><div id=""chart_container""></div><div class=""food-container""><img id=""item_2"" class=""food-item"" src=""img/food_items/0189.jpg""></div></div>","","stage_2_rating_images_only","0","6","","","","","false","","","","","","","","","","","","","","","","","","",""
"reward","142","625986","0.0-15.0-0.0-1.6","5ac78faa68b65b00018d72a1","61efc64a8ec3b24bc537c194","620d125fa734c9a6ce0ca2c8","10","10","1","360","90","4","[[0.2,0.8],[0.4,0.6]]","2","0.5","1200","2000","1000","750","1920","968","1920","1080","0.64","","964","arrowleft","","","<div id=""parent_container""><div class=""food-container""><img id=""item_1"" class=""food-item"" src=""img/white_rectangle.jpg""></div><div id=""chart_container""><img id=""trial_type_img"" src=""img/reward_icon.png""></div><div class=""food-container""><img id=""item_2"" class=""food-item"" src=""img/white_rectangle.jpg""></div></div>","","stage_2_rating_trial","0","6","","","","","false","0614","64.5","more_preferred","blue","0.4","0189","22.5","less_preferred","red","0.6","-42","1","1","100","","","","",""
"html-keyboard-response","143","626987","0.0-15.0-0.0-4.6-0.6","5ac78faa68b65b00018d72a1","61efc64a8ec3b24bc537c194","620d125fa734c9a6ce0ca2c8","10","10","1","360","90","4","[[0.2,0.8],[0.4,0.6]]","2","0.5","1200","2000","1000","750","1920","968","1920","1080","0.64","","null","null","","","","","stage_2_feedback_trial","0","6","","","","","false","","","","","","","","","","","","","","","","","","",""
"html-keyboard-response","144","629530","0.0-15.0-0.0-0.7","5ac78faa68b65b00018d72a1","61efc64a8ec3b24bc537c194","620d125fa734c9a6ce0ca2c8","10","10","1","360","90","4","[[0.2,0.8],[0.4,0.6]]","2","0.5","1200","2000","1000","750","1920","968","1920","1080","0.64","","null","null","","","<div id=""parent_container""><div class=""food-container""><img id=""item_1"" class=""food-item"" src=""img/food_items/0468.jpg""></div><div id=""chart_container""></div><div class=""food-container""><img id=""item_2"" class=""food-item"" src=""img/food_items/0070.jpg""></div></div>","","stage_2_rating_images_only","0","7","","","","","false","","","","","","","","","","","","","","","","","","",""
"reward","145","631323","0.0-15.0-0.0-1.7","5ac78faa68b65b00018d72a1","61efc64a8ec3b24bc537c194","620d125fa734c9a6ce0ca2c8","10","10","1","360","90","4","[[0.2,0.8],[0.4,0.6]]","2","0.5","1200","2000","1000","750","1920","968","1920","1080","0.64","","1790","arrowleft","","","<div id=""parent_container""><div class=""food-container""><img id=""item_1"" class=""food-item"" src=""img/white_rectangle.jpg""></div><div id=""chart_container""><img id=""trial_type_img"" src=""img/reward_icon.png""></div><div class=""food-container""><img id=""item_2"" class=""food-item"" src=""img/white_rectangle.jpg""></div></div>","","stage_2_rating_trial","0","7","","","","","false","0468","93.5","more_preferred","blue","0.4","0070","88","less_preferred","red","0.6","-5.5","1","1","0","","","","",""
"html-keyboard-response","146","632325","0.0-15.0-0.0-4.7-0.7","5ac78faa68b65b00018d72a1","61efc64a8ec3b24bc537c194","620d125fa734c9a6ce0ca2c8","10","10","1","360","90","4","[[0.2,0.8],[0.4,0.6]]","2","0.5","1200","2000","1000","750","1920","968","1920","1080","0.64","","null","null","","","","","stage_2_feedback_trial","0","7","","","","","false","","","","","","","","","","","","","","","","","","",""
"html-keyboard-response","147","634869","0.0-15.0-0.0-0.8","5ac78faa68b65b00018d72a1","61efc64a8ec3b24bc537c194","620d125fa734c9a6ce0ca2c8","10","10","1","360","90","4","[[0.2,0.8],[0.4,0.6]]","2","0.5","1200","2000","1000","750","1920","968","1920","1080","0.64","","null","null","","","<div id=""parent_container""><div class=""food-container""><img id=""item_1"" class=""food-item"" src=""img/food_items/0468.jpg""></div><div id=""chart_container""></div><div class=""food-container""><img id=""item_2"" class=""food-item"" src=""img/food_items/0199.jpg""></div></div>","","stage_2_rating_images_only","0","8","","","","","false","","","","","","","","","","","","","","","","","","",""
"reward","148","636011","0.0-15.0-0.0-1.8","5ac78faa68b65b00018d72a1","61efc64a8ec3b24bc537c194","620d125fa734c9a6ce0ca2c8","10","10","1","360","90","4","[[0.2,0.8],[0.4,0.6]]","2","0.5","1200","2000","1000","750","1920","968","1920","1080","0.64","","1141","arrowleft","","","<div id=""parent_container""><div class=""food-container""><img id=""item_1"" class=""food-item"" src=""img/white_rectangle.jpg""></div><div id=""chart_container""><img id=""trial_type_img"" src=""img/reward_icon.png""></div><div class=""food-container""><img id=""item_2"" class=""food-item"" src=""img/white_rectangle.jpg""></div></div>","","stage_2_rating_trial","0","8","","","","","false","0468","93.5","more_preferred","blue","0.4","0199","71.5","less_preferred","red","0.6","-22","1","1","0","","","","",""
"html-keyboard-response","149","637013","0.0-15.0-0.0-4.8-0.8","5ac78faa68b65b00018d72a1","61efc64a8ec3b24bc537c194","620d125fa734c9a6ce0ca2c8","10","10","1","360","90","4","[[0.2,0.8],[0.4,0.6]]","2","0.5","1200","2000","1000","750","1920","968","1920","1080","0.64","","null","null","","","","","stage_2_feedback_trial","0","8","","","","","false","","","","","","","","","","","","","","","","","","",""
"html-keyboard-response","150","639556","0.0-15.0-0.0-0.9","5ac78faa68b65b00018d72a1","61efc64a8ec3b24bc537c194","620d125fa734c9a6ce0ca2c8","10","10","1","360","90","4","[[0.2,0.8],[0.4,0.6]]","2","0.5","1200","2000","1000","750","1920","968","1920","1080","0.64","","null","null","","","<div id=""parent_container""><div class=""food-container""><img id=""item_1"" class=""food-item"" src=""img/food_items/0504.jpg""></div><div id=""chart_container""></div><div class=""food-container""><img id=""item_2"" class=""food-item"" src=""img/food_items/0116.jpg""></div></div>","","stage_2_rating_images_only","0","9","","","","","false","","","","","","","","","","","","","","","","","","",""
"reward","151","640728","0.0-15.0-0.0-1.9","5ac78faa68b65b00018d72a1","61efc64a8ec3b24bc537c194","620d125fa734c9a6ce0ca2c8","10","10","1","360","90","4","[[0.2,0.8],[0.4,0.6]]","2","0.5","1200","2000","1000","750","1920","968","1920","1080","0.64","","1169","arrowleft","","","<div id=""parent_container""><div class=""food-container""><img id=""item_1"" class=""food-item"" src=""img/white_rectangle.jpg""></div><div id=""chart_container""><img id=""trial_type_img"" src=""img/reward_icon.png""></div><div class=""food-container""><img id=""item_2"" class=""food-item"" src=""img/white_rectangle.jpg""></div></div>","","stage_2_rating_trial","0","9","","","","","false","0504","42.5","less_preferred","red","0.6","0116","44.5","more_preferred","blue","0.4","2","1","0","100","","","","",""
"html-keyboard-response","152","641729","0.0-15.0-0.0-4.9-0.9","5ac78faa68b65b00018d72a1","61efc64a8ec3b24bc537c194","620d125fa734c9a6ce0ca2c8","10","10","1","360","90","4","[[0.2,0.8],[0.4,0.6]]","2","0.5","1200","2000","1000","750","1920","968","1920","1080","0.64","","null","null","","","","","stage_2_feedback_trial","0","9","","","","","false","","","","","","","","","","","","","","","","","","",""
"html-keyboard-response","153","644272","0.0-15.0-0.0-0.10","5ac78faa68b65b00018d72a1","61efc64a8ec3b24bc537c194","620d125fa734c9a6ce0ca2c8","10","10","1","360","90","4","[[0.2,0.8],[0.4,0.6]]","2","0.5","1200","2000","1000","750","1920","968","1920","1080","0.64","","null","null","","","<div id=""parent_container""><div class=""food-container""><img id=""item_1"" class=""food-item"" src=""img/food_items/0310.jpg""></div><div id=""chart_container""></div><div class=""food-container""><img id=""item_2"" class=""food-item"" src=""img/food_items/0028.jpg""></div></div>","","stage_2_rating_images_only","0","10","","","","","false","","","","","","","","","","","","","","","","","","",""
"reward","154","645451","0.0-15.0-0.0-1.10","5ac78faa68b65b00018d72a1","61efc64a8ec3b24bc537c194","620d125fa734c9a6ce0ca2c8","10","10","1","360","90","4","[[0.2,0.8],[0.4,0.6]]","2","0.5","1200","2000","1000","750","1920","968","1920","1080","0.64","","1177","arrowleft","","","<div id=""parent_container""><div class=""food-container""><img id=""item_1"" class=""food-item"" src=""img/white_rectangle.jpg""></div><div id=""chart_container""><img id=""trial_type_img"" src=""img/reward_icon.png""></div><div class=""food-container""><img id=""item_2"" class=""food-item"" src=""img/white_rectangle.jpg""></div></div>","","stage_2_rating_trial","0","10","","","","","false","0310","19.5","less_preferred","red","0.6","0028","76.5","more_preferred","blue","0.4","57","1","0","0","","","","",""
"html-keyboard-response","155","646452","0.0-15.0-0.0-4.10-0.10","5ac78faa68b65b00018d72a1","61efc64a8ec3b24bc537c194","620d125fa734c9a6ce0ca2c8","10","10","1","360","90","4","[[0.2,0.8],[0.4,0.6]]","2","0.5","1200","2000","1000","750","1920","968","1920","1080","0.64","","null","null","","","","","stage_2_feedback_trial","0","10","","","","","false","","","","","","","","","","","","","","","","","","",""
"html-keyboard-response","156","648996","0.0-15.0-0.0-0.11","5ac78faa68b65b00018d72a1","61efc64a8ec3b24bc537c194","620d125fa734c9a6ce0ca2c8","10","10","1","360","90","4","[[0.2,0.8],[0.4,0.6]]","2","0.5","1200","2000","1000","750","1920","968","1920","1080","0.64","","null","null","","","<div id=""parent_container""><div class=""food-container""><img id=""item_1"" class=""food-item"" src=""img/food_items/0116.jpg""></div><div id=""chart_container""></div><div class=""food-container""><img id=""item_2"" class=""food-item"" src=""img/food_items/0313.jpg""></div></div>","","stage_2_rating_images_only","0","11","","","","","false","","","","","","","","","","","","","","","","","","",""
"preference","157","650776","0.0-15.0-0.0-1.11","5ac78faa68b65b00018d72a1","61efc64a8ec3b24bc537c194","620d125fa734c9a6ce0ca2c8","10","10","1","360","90","4","[[0.2,0.8],[0.4,0.6]]","2","0.5","1200","2000","1000","750","1920","968","1920","1080","0.64","","1777","arrowright","","","<div id=""parent_container""><div class=""food-container""><img id=""item_1"" class=""food-item"" src=""img/white_rectangle.jpg""></div><div id=""chart_container""><img id=""trial_type_img"" src=""img/pref_icon.png""></div><div class=""food-container""><img id=""item_2"" class=""food-item"" src=""img/white_rectangle.jpg""></div></div>","","stage_2_rating_trial","0","11","","","","","false","0116","44.5","more_preferred","blue","0.4","0313","31","less_preferred","red","0.6","-13.5","2","0","0","","","","",""
"html-keyboard-response","158","651778","0.0-15.0-0.0-4.11-0.11","5ac78faa68b65b00018d72a1","61efc64a8ec3b24bc537c194","620d125fa734c9a6ce0ca2c8","10","10","1","360","90","4","[[0.2,0.8],[0.4,0.6]]","2","0.5","1200","2000","1000","750","1920","968","1920","1080","0.64","","null","null","","","","","stage_2_feedback_trial","0","11","","","","","false","","","","","","","","","","","","","","","","","","",""
"html-keyboard-response","159","654321","0.0-15.0-0.0-0.12","5ac78faa68b65b00018d72a1","61efc64a8ec3b24bc537c194","620d125fa734c9a6ce0ca2c8","10","10","1","360","90","4","[[0.2,0.8],[0.4,0.6]]","2","0.5","1200","2000","1000","750","1920","968","1920","1080","0.64","","null","null","","","<div id=""parent_container""><div class=""food-container""><img id=""item_1"" class=""food-item"" src=""img/food_items/0614.jpg""></div><div id=""chart_container""></div><div class=""food-container""><img id=""item_2"" class=""food-item"" src=""img/food_items/0820.jpg""></div></div>","","stage_2_rating_images_only","0","12","","","","","false","","","","","","","","","","","","","","","","","","",""
"reward","160","655485","0.0-15.0-0.0-1.12","5ac78faa68b65b00018d72a1","61efc64a8ec3b24bc537c194","620d125fa734c9a6ce0ca2c8","10","10","1","360","90","4","[[0.2,0.8],[0.4,0.6]]","2","0.5","1200","2000","1000","750","1920","968","1920","1080","0.64","","1161","arrowleft","","","<div id=""parent_container""><div class=""food-container""><img id=""item_1"" class=""food-item"" src=""img/white_rectangle.jpg""></div><div id=""chart_container""><img id=""trial_type_img"" src=""img/reward_icon.png""></div><div class=""food-container""><img id=""item_2"" class=""food-item"" src=""img/white_rectangle.jpg""></div></div>","","stage_2_rating_trial","0","12","","","","","false","0614","64.5","more_preferred","blue","0.4","0820","0","less_preferred","red","0.6","-64.5","1","1","0","","","","",""
"html-keyboard-response","161","656487","0.0-15.0-0.0-4.12-0.12","5ac78faa68b65b00018d72a1","61efc64a8ec3b24bc537c194","620d125fa734c9a6ce0ca2c8","10","10","1","360","90","4","[[0.2,0.8],[0.4,0.6]]","2","0.5","1200","2000","1000","750","1920","968","1920","1080","0.64","","null","null","","","","","stage_2_feedback_trial","0","12","","","","","false","","","","","","","","","","","","","","","","","","",""
"html-keyboard-response","162","659029","0.0-15.0-0.0-0.13","5ac78faa68b65b00018d72a1","61efc64a8ec3b24bc537c194","620d125fa734c9a6ce0ca2c8","10","10","1","360","90","4","[[0.2,0.8],[0.4,0.6]]","2","0.5","1200","2000","1000","750","1920","968","1920","1080","0.64","","null","null","","","<div id=""parent_container""><div class=""food-container""><img id=""item_1"" class=""food-item"" src=""img/food_items/0286.jpg""></div><div id=""chart_container""></div><div class=""food-container""><img id=""item_2"" class=""food-item"" src=""img/food_items/0360.jpg""></div></div>","","stage_2_rating_images_only","0","13","","","","","false","","","","","","","","","","","","","","","","","","",""
"reward","163","659812","0.0-15.0-0.0-1.13","5ac78faa68b65b00018d72a1","61efc64a8ec3b24bc537c194","620d125fa734c9a6ce0ca2c8","10","10","1","360","90","4","[[0.2,0.8],[0.4,0.6]]","2","0.5","1200","2000","1000","750","1920","968","1920","1080","0.64","","780","arrowleft","","","<div id=""parent_container""><div class=""food-container""><img id=""item_1"" class=""food-item"" src=""img/white_rectangle.jpg""></div><div id=""chart_container""><img id=""trial_type_img"" src=""img/reward_icon.png""></div><div class=""food-container""><img id=""item_2"" class=""food-item"" src=""img/white_rectangle.jpg""></div></div>","","stage_2_rating_trial","0","13","","","","","false","0286","34.5","less_preferred","red","0.6","0360","100","more_preferred","blue","0.4","65.5","1","0","0","","","","",""
"html-keyboard-response","164","660814","0.0-15.0-0.0-4.13-0.13","5ac78faa68b65b00018d72a1","61efc64a8ec3b24bc537c194","620d125fa734c9a6ce0ca2c8","10","10","1","360","90","4","[[0.2,0.8],[0.4,0.6]]","2","0.5","1200","2000","1000","750","1920","968","1920","1080","0.64","","null","null","","","","","stage_2_feedback_trial","0","13","","","","","false","","","","","","","","","","","","","","","","","","",""
"html-keyboard-response","165","663359","0.0-15.0-0.0-0.14","5ac78faa68b65b00018d72a1","61efc64a8ec3b24bc537c194","620d125fa734c9a6ce0ca2c8","10","10","1","360","90","4","[[0.2,0.8],[0.4,0.6]]","2","0.5","1200","2000","1000","750","1920","968","1920","1080","0.64","","null","null","","","<div id=""parent_container""><div class=""food-container""><img id=""item_1"" class=""food-item"" src=""img/food_items/0460.jpg""></div><div id=""chart_container""></div><div class=""food-container""><img id=""item_2"" class=""food-item"" src=""img/food_items/0277.jpg""></div></div>","","stage_2_rating_images_only","0","14","","","","","false","","","","","","","","","","","","","","","","","","",""
"reward","166","665056","0.0-15.0-0.0-1.14","5ac78faa68b65b00018d72a1","61efc64a8ec3b24bc537c194","620d125fa734c9a6ce0ca2c8","10","10","1","360","90","4","[[0.2,0.8],[0.4,0.6]]","2","0.5","1200","2000","1000","750","1920","968","1920","1080","0.64","","1694","arrowright","","","<div id=""parent_container""><div class=""food-container""><img id=""item_1"" class=""food-item"" src=""img/white_rectangle.jpg""></div><div id=""chart_container""><img id=""trial_type_img"" src=""img/reward_icon.png""></div><div class=""food-container""><img id=""item_2"" class=""food-item"" src=""img/white_rectangle.jpg""></div></div>","","stage_2_rating_trial","0","14","","","","","false","0460","87","more_preferred","blue","0.4","0277","50","less_preferred","red","0.6","-37","2","0","0","","","","",""
"html-keyboard-response","167","666059","0.0-15.0-0.0-4.14-0.14","5ac78faa68b65b00018d72a1","61efc64a8ec3b24bc537c194","620d125fa734c9a6ce0ca2c8","10","10","1","360","90","4","[[0.2,0.8],[0.4,0.6]]","2","0.5","1200","2000","1000","750","1920","968","1920","1080","0.64","","null","null","","","","","stage_2_feedback_trial","0","14","","","","","false","","","","","","","","","","","","","","","","","","",""
"html-keyboard-response","168","668601","0.0-15.0-0.0-0.15","5ac78faa68b65b00018d72a1","61efc64a8ec3b24bc537c194","620d125fa734c9a6ce0ca2c8","10","10","1","360","90","4","[[0.2,0.8],[0.4,0.6]]","2","0.5","1200","2000","1000","750","1920","968","1920","1080","0.64","","null","null","","","<div id=""parent_container""><div class=""food-container""><img id=""item_1"" class=""food-item"" src=""img/food_items/0187.jpg""></div><div id=""chart_container""></div><div class=""food-container""><img id=""item_2"" class=""food-item"" src=""img/food_items/0014.jpg""></div></div>","","stage_2_rating_images_only","0","15","","","","","false","","","","","","","","","","","","","","","","","","",""
"reward","169","669768","0.0-15.0-0.0-1.15","5ac78faa68b65b00018d72a1","61efc64a8ec3b24bc537c194","620d125fa734c9a6ce0ca2c8","10","10","1","360","90","4","[[0.2,0.8],[0.4,0.6]]","2","0.5","1200","2000","1000","750","1920","968","1920","1080","0.64","","1164","arrowleft","","","<div id=""parent_container""><div class=""food-container""><img id=""item_1"" class=""food-item"" src=""img/white_rectangle.jpg""></div><div id=""chart_container""><img id=""trial_type_img"" src=""img/reward_icon.png""></div><div class=""food-container""><img id=""item_2"" class=""food-item"" src=""img/white_rectangle.jpg""></div></div>","","stage_2_rating_trial","0","15","","","","","false","0187","100","more_preferred","blue","0.4","0014","61","less_preferred","red","0.6","-39","1","1","0","","","","",""
"html-keyboard-response","170","670770","0.0-15.0-0.0-4.15-0.15","5ac78faa68b65b00018d72a1","61efc64a8ec3b24bc537c194","620d125fa734c9a6ce0ca2c8","10","10","1","360","90","4","[[0.2,0.8],[0.4,0.6]]","2","0.5","1200","2000","1000","750","1920","968","1920","1080","0.64","","null","null","","","","","stage_2_feedback_trial","0","15","","","","","false","","","","","","","","","","","","","","","","","","",""
"html-keyboard-response","171","673314","0.0-15.0-0.0-0.16","5ac78faa68b65b00018d72a1","61efc64a8ec3b24bc537c194","620d125fa734c9a6ce0ca2c8","10","10","1","360","90","4","[[0.2,0.8],[0.4,0.6]]","2","0.5","1200","2000","1000","750","1920","968","1920","1080","0.64","","null","null","","","<div id=""parent_container""><div class=""food-container""><img id=""item_1"" class=""food-item"" src=""img/food_items/0460.jpg""></div><div id=""chart_container""></div><div class=""food-container""><img id=""item_2"" class=""food-item"" src=""img/food_items/0507.jpg""></div></div>","","stage_2_rating_images_only","0","16","","","","","false","","","","","","","","","","","","","","","","","","",""
"preference","172","674714","0.0-15.0-0.0-1.16","5ac78faa68b65b00018d72a1","61efc64a8ec3b24bc537c194","620d125fa734c9a6ce0ca2c8","10","10","1","360","90","4","[[0.2,0.8],[0.4,0.6]]","2","0.5","1200","2000","1000","750","1920","968","1920","1080","0.64","","1398","arrowleft","","","<div id=""parent_container""><div class=""food-container""><img id=""item_1"" class=""food-item"" src=""img/white_rectangle.jpg""></div><div id=""chart_container""><img id=""trial_type_img"" src=""img/pref_icon.png""></div><div class=""food-container""><img id=""item_2"" class=""food-item"" src=""img/white_rectangle.jpg""></div></div>","","stage_2_rating_trial","0","16","","","","","false","0460","87","more_preferred","blue","0.4","0507","61.5","less_preferred","red","0.6","-25.5","1","1","100","","","","",""
"html-keyboard-response","173","675716","0.0-15.0-0.0-4.16-0.16","5ac78faa68b65b00018d72a1","61efc64a8ec3b24bc537c194","620d125fa734c9a6ce0ca2c8","10","10","1","360","90","4","[[0.2,0.8],[0.4,0.6]]","2","0.5","1200","2000","1000","750","1920","968","1920","1080","0.64","","null","null","","","","","stage_2_feedback_trial","0","16","","","","","false","","","","","","","","","","","","","","","","","","",""
"html-keyboard-response","174","678258","0.0-15.0-0.0-0.17","5ac78faa68b65b00018d72a1","61efc64a8ec3b24bc537c194","620d125fa734c9a6ce0ca2c8","10","10","1","360","90","4","[[0.2,0.8],[0.4,0.6]]","2","0.5","1200","2000","1000","750","1920","968","1920","1080","0.64","","null","null","","","<div id=""parent_container""><div class=""food-container""><img id=""item_1"" class=""food-item"" src=""img/food_items/0310.jpg""></div><div id=""chart_container""></div><div class=""food-container""><img id=""item_2"" class=""food-item"" src=""img/food_items/0286.jpg""></div></div>","","stage_2_rating_images_only","0","17","","","","","false","","","","","","","","","","","","","","","","","","",""
"preference","175","679458","0.0-15.0-0.0-1.17","5ac78faa68b65b00018d72a1","61efc64a8ec3b24bc537c194","620d125fa734c9a6ce0ca2c8","10","10","1","360","90","4","[[0.2,0.8],[0.4,0.6]]","2","0.5","1200","2000","1000","750","1920","968","1920","1080","0.64","","1196","arrowright","","","<div id=""parent_container""><div class=""food-container""><img id=""item_1"" class=""food-item"" src=""img/white_rectangle.jpg""></div><div id=""chart_container""><img id=""trial_type_img"" src=""img/pref_icon.png""></div><div class=""food-container""><img id=""item_2"" class=""food-item"" src=""img/white_rectangle.jpg""></div></div>","","stage_2_rating_trial","0","17","","","","","false","0310","19.5","less_preferred","red","0.6","0286","34.5","more_preferred","blue","0.4","15","2","1","100","","","","",""
"html-keyboard-response","176","680459","0.0-15.0-0.0-4.17-0.17","5ac78faa68b65b00018d72a1","61efc64a8ec3b24bc537c194","620d125fa734c9a6ce0ca2c8","10","10","1","360","90","4","[[0.2,0.8],[0.4,0.6]]","2","0.5","1200","2000","1000","750","1920","968","1920","1080","0.64","","null","null","","","","","stage_2_feedback_trial","0","17","","","","","false","","","","","","","","","","","","","","","","","","",""
"html-keyboard-response","177","683003","0.0-15.0-0.0-0.18","5ac78faa68b65b00018d72a1","61efc64a8ec3b24bc537c194","620d125fa734c9a6ce0ca2c8","10","10","1","360","90","4","[[0.2,0.8],[0.4,0.6]]","2","0.5","1200","2000","1000","750","1920","968","1920","1080","0.64","","null","null","","","<div id=""parent_container""><div class=""food-container""><img id=""item_1"" class=""food-item"" src=""img/food_items/0319.jpg""></div><div id=""chart_container""></div><div class=""food-container""><img id=""item_2"" class=""food-item"" src=""img/food_items/0041.jpg""></div></div>","","stage_2_rating_images_only","0","18","","","","","false","","","","","","","","","","","","","","","","","","",""
"preference","178","684090","0.0-15.0-0.0-1.18","5ac78faa68b65b00018d72a1","61efc64a8ec3b24bc537c194","620d125fa734c9a6ce0ca2c8","10","10","1","360","90","4","[[0.2,0.8],[0.4,0.6]]","2","0.5","1200","2000","1000","750","1920","968","1920","1080","0.64","","1084","arrowright","","","<div id=""parent_container""><div class=""food-container""><img id=""item_1"" class=""food-item"" src=""img/white_rectangle.jpg""></div><div id=""chart_container""><img id=""trial_type_img"" src=""img/pref_icon.png""></div><div class=""food-container""><img id=""item_2"" class=""food-item"" src=""img/white_rectangle.jpg""></div></div>","","stage_2_rating_trial","0","18","","","","","false","0319","12.5","less_preferred","red","0.6","0041","50","more_preferred","blue","0.4","37.5","2","1","100","","","","",""
"html-keyboard-response","179","685091","0.0-15.0-0.0-4.18-0.18","5ac78faa68b65b00018d72a1","61efc64a8ec3b24bc537c194","620d125fa734c9a6ce0ca2c8","10","10","1","360","90","4","[[0.2,0.8],[0.4,0.6]]","2","0.5","1200","2000","1000","750","1920","968","1920","1080","0.64","","null","null","","","","","stage_2_feedback_trial","0","18","","","","","false","","","","","","","","","","","","","","","","","","",""
"html-keyboard-response","180","687634","0.0-15.0-0.0-0.19","5ac78faa68b65b00018d72a1","61efc64a8ec3b24bc537c194","620d125fa734c9a6ce0ca2c8","10","10","1","360","90","4","[[0.2,0.8],[0.4,0.6]]","2","0.5","1200","2000","1000","750","1920","968","1920","1080","0.64","","null","null","","","<div id=""parent_container""><div class=""food-container""><img id=""item_1"" class=""food-item"" src=""img/food_items/0319.jpg""></div><div id=""chart_container""></div><div class=""food-container""><img id=""item_2"" class=""food-item"" src=""img/food_items/0468.jpg""></div></div>","","stage_2_rating_images_only","0","19","","","","","false","","","","","","","","","","","","","","","","","","",""
"preference","181","688608","0.0-15.0-0.0-1.19","5ac78faa68b65b00018d72a1","61efc64a8ec3b24bc537c194","620d125fa734c9a6ce0ca2c8","10","10","1","360","90","4","[[0.2,0.8],[0.4,0.6]]","2","0.5","1200","2000","1000","750","1920","968","1920","1080","0.64","","971","arrowright","","","<div id=""parent_container""><div class=""food-container""><img id=""item_1"" class=""food-item"" src=""img/white_rectangle.jpg""></div><div id=""chart_container""><img id=""trial_type_img"" src=""img/pref_icon.png""></div><div class=""food-container""><img id=""item_2"" class=""food-item"" src=""img/white_rectangle.jpg""></div></div>","","stage_2_rating_trial","0","19","","","","","false","0319","12.5","less_preferred","red","0.6","0468","93.5","more_preferred","blue","0.4","81","2","1","100","","","","",""
"html-keyboard-response","182","689611","0.0-15.0-0.0-4.19-0.19","5ac78faa68b65b00018d72a1","61efc64a8ec3b24bc537c194","620d125fa734c9a6ce0ca2c8","10","10","1","360","90","4","[[0.2,0.8],[0.4,0.6]]","2","0.5","1200","2000","1000","750","1920","968","1920","1080","0.64","","null","null","","","","","stage_2_feedback_trial","0","19","","","","","false","","","","","","","","","","","","","","","","","","",""
"html-keyboard-response","183","692153","0.0-15.0-0.0-0.20","5ac78faa68b65b00018d72a1","61efc64a8ec3b24bc537c194","620d125fa734c9a6ce0ca2c8","10","10","1","360","90","4","[[0.2,0.8],[0.4,0.6]]","2","0.5","1200","2000","1000","750","1920","968","1920","1080","0.64","","null","null","","","<div id=""parent_container""><div class=""food-container""><img id=""item_1"" class=""food-item"" src=""img/food_items/0365.jpg""></div><div id=""chart_container""></div><div class=""food-container""><img id=""item_2"" class=""food-item"" src=""img/food_items/0400.jpg""></div></div>","","stage_2_rating_images_only","0","20","","","","","false","","","","","","","","","","","","","","","","","","",""
"preference","184","692800","0.0-15.0-0.0-1.20","5ac78faa68b65b00018d72a1","61efc64a8ec3b24bc537c194","620d125fa734c9a6ce0ca2c8","10","10","1","360","90","4","[[0.2,0.8],[0.4,0.6]]","2","0.5","1200","2000","1000","750","1920","968","1920","1080","0.64","","644","arrowleft","","","<div id=""parent_container""><div class=""food-container""><img id=""item_1"" class=""food-item"" src=""img/white_rectangle.jpg""></div><div id=""chart_container""><img id=""trial_type_img"" src=""img/pref_icon.png""></div><div class=""food-container""><img id=""item_2"" class=""food-item"" src=""img/white_rectangle.jpg""></div></div>","","stage_2_rating_trial","0","20","","","","","false","0365","94.5","less_preferred","red","0.6","0400","100","more_preferred","blue","0.4","5.5","1","0","0","","","","",""
